"sep=	"
Shimmer_BFED_Timestamp_Unix_CAL	Shimmer_BFED_Accel_LN_X_CAL	Shimmer_BFED_Accel_LN_Y_CAL	Shimmer_BFED_Accel_LN_Z_CAL	Shimmer_BFED_Accel_WR_X_CAL	Shimmer_BFED_Accel_WR_Y_CAL	Shimmer_BFED_Accel_WR_Z_CAL	Shimmer_BFED_Gyro_X_CAL	Shimmer_BFED_Gyro_Y_CAL	Shimmer_BFED_Gyro_Z_CAL	Shimmer_BFED_Pressure_BMP180_CAL	Shimmer_BFED_Temperature_BMP180_CAL	
ms	m/(s^2)	m/(s^2)	m/(s^2)	m/(s^2)	m/(s^2)	m/(s^2)	deg/s	deg/s	deg/s	kPa	Degrees Celsius	
1512129026922.39	-6.91566265060241	4.37349397590361	6.45783132530121	-7.06315144083384	4.19865113427345	6.2391171060699	26.2595419847328	-20.381679389313	-45.7862595419847	102.419585680077	26.5688577306986	
1512129026930.21	-6.89156626506024	4.26506024096386	6.28915662650602	-7.01410177805028	4.05150214592275	6.08215818516248	29.4656488549618	-19.2519083969466	-43.587786259542	102.419585680077	26.5688577306986	
1512129026934.11	-6.78313253012048	4.12048192771084	6.18072289156627	-6.89638258736971	3.98283261802575	6.05272838749234	32.1526717557252	-19.2671755725191	-42.8702290076336	102.419585680077	26.5688577306986	
1512129026938.02	-6.3855421686747	3.85542168674699	6.3855421686747	-6.73942366646229	3.82587369711833	6.11158798283262	34.9770992366412	-15.8320610687023	-42.9923664122137	102.419585680077	26.5688577306986	
1512129026941.93	-6.6144578313253	4.07228915662651	6.42168674698795	-6.66094420600858	3.85530349478847	6.18025751072961	37.3893129770992	-3.55725190839695	-42.7022900763359	102.419585680077	26.5688577306986	
1512129026945.83	-7.0	4.46987951807229	5.74698795180723	-6.91600245248314	4.13979153893317	5.8859595340282	36.8854961832061	-4.82442748091603	-43.0534351145038	102.419585680077	26.5688577306986	
1512129026949.74	-7.12048192771084	4.33734939759036	5.59036144578313	-7.19068056407112	4.20846106683017	5.4543225015328	35.0687022900763	-10.3358778625954	-42.1526717557252	102.416632493877	26.5688577306986	
1512129026953.64	-6.92771084337349	4.33734939759036	5.57831325301205	-7.06315144083384	4.1594114040466	5.31698344573881	30.5954198473282	-16.4274809160305	-42.1526717557252	102.416632493877	26.5688577306986	
1512129026957.55	-6.79518072289157	4.14457831325301	5.66265060240964	-6.98467198038014	4.0907418761496	5.29736358062538	25.9541984732824	-19.7251908396947	-43.4351145038168	102.416632493877	26.5688577306986	
1512129026961.46	-6.81927710843374	4.01204819277108	5.72289156626506	-6.90619251992643	3.92397302268547	5.43470263641938	23.206106870229	-19.1908396946565	-44.1526717557252	102.416632493877	26.5688577306986	
1512129026965.36	-6.92771084337349	4.0	5.85542168674699	-6.98467198038014	3.90435315757204	5.5229920294298	22.0610687022901	-15.969465648855	-43.9083969465649	102.416632493877	26.5688577306986	
1512129026969.27	-7.0	3.91566265060241	5.79518072289157	-7.08277130594727	3.77682403433476	5.56223175965665	21.7404580152672	-14.0610687022901	-43.1908396946565	102.416632493877	26.5688577306986	
1512129026973.18	-7.04819277108434	3.95180722891566	5.81927710843374	-7.14163090128755	3.81606376456162	5.59166155732679	22.0152671755725	-13.1297709923664	-42.0763358778626	102.410726123779	26.5688577306986	
1512129026977.08	-7.01204819277108	3.90361445783133	5.83132530120482	-7.11220110361741	3.77682403433476	5.59166155732679	22.9465648854962	-12.7480916030534	-40.9770992366412	102.410726123779	26.5688577306986	
1512129026980.99	-7.0	3.85542168674699	5.81927710843374	-7.12201103617413	3.69834457388105	5.62109135499693	24.6717557251908	-12.5954198473282	-40.6259541984733	102.410726123779	26.5688577306986	
1512129026984.89	-7.03614457831325	3.7710843373494	5.80722891566265	-7.12201103617413	3.63948497854077	5.59166155732679	26.3969465648855	-13.6335877862595	-40.1984732824428	102.416632493877	26.5688577306986	
1512129026988.8	-7.09638554216868	3.71084337349398	5.83132530120482	-7.19068056407112	3.5904353157572	5.55242182709994	28.381679389313	-15.4503816793893	-39.7862595419847	102.416632493877	26.5688577306986	
1512129026992.71	-7.12048192771084	3.68674698795181	5.92771084337349	-7.21030042918455	3.56100551808706	5.66033108522379	29.9236641221374	-18.412213740458	-38.442748091603	102.416632493877	26.5688577306986	
1512129026996.61	-7.08433734939759	3.68674698795181	6.07228915662651	-7.2495401594114	3.56100551808706	5.71919068056407	30.8854961832061	-21.3587786259542	-36.5343511450382	102.419585680077	26.5688577306986	
1512129027000.52	-7.04819277108434	3.68674698795181	6.1566265060241	-7.19068056407112	3.52176578786021	5.8859595340282	31.0992366412214	-23.0534351145038	-34.793893129771	102.419585680077	26.5688577306986	
1512129027004.43	-7.13253012048193	3.69879518072289	6.14457831325301	-7.20049049662784	3.49233599019007	5.90557939914163	31.7862595419847	-24.763358778626	-33.9541984732824	102.419585680077	26.5688577306986	
1512129027008.33	-7.1566265060241	3.71084337349398	6.13253012048193	-7.2495401594114	3.54138565297364	5.87614960147149	33.4961832061069	-26.824427480916	-33.1603053435114	102.419585680077	26.5688577306986	
1512129027012.24	-7.1566265060241	3.68674698795181	6.1566265060241	-7.26916002452483	3.55119558553035	5.93500919681177	35.7251908396947	-29.0992366412214	-32.3206106870229	102.419585680077	26.5688577306986	
1512129027016.14	-7.09638554216868	3.68674698795181	6.14457831325301	-7.22992029429798	3.46290619251993	5.93500919681177	37.1603053435114	-31.6641221374046	-31.5572519083969	102.419585680077	26.5688577306986	
1512129027020.05	-7.06024096385542	3.69879518072289	6.16867469879518	-7.16125076640098	3.51195585530349	5.85652973635806	37.7557251908397	-34.3358778625954	-31.0229007633588	102.425492054783	26.5688577306986	
1512129027023.96	-7.09638554216868	3.67469879518072	6.18072289156627	-7.14163090128755	3.52176578786021	5.8859595340282	36.9465648854962	-36.4732824427481	-31.2671755725191	102.425492054783	26.5688577306986	
1512129027027.86	-7.13253012048193	3.6144578313253	6.1566265060241	-6.95524218270999	3.42366646229307	5.83690987124464	36.1068702290076	-38.4580152671756	-32.0916030534351	102.425492054783	26.5688577306986	
1512129027031.77	-7.13253012048193	3.57831325301205	6.1566265060241	-7.06315144083384	3.43347639484978	5.81729000613121	35.4961832061069	-41.206106870229	-33.206106870229	102.419585680077	26.5688577306986	
1512129027035.68	-7.13253012048193	3.60240963855422	6.1566265060241	-7.15144083384427	3.42366646229307	5.78786020846107	35.2824427480916	-44.412213740458	-34.030534351145	102.419585680077	26.5688577306986	
1512129027039.58	-7.09638554216868	3.59036144578313	6.18072289156627	-7.17106069895769	3.47271612507664	5.8859595340282	35.4809160305343	-47.6030534351145	-34.8549618320611	102.419585680077	26.5688577306986	
1512129027043.49	-7.07228915662651	3.65060240963855	6.2289156626506	-7.18087063151441	3.47271612507664	5.93500919681177	36.4274809160305	-50.0916030534351	-35.3129770992366	102.413679308444	26.5688577306986	
1512129027047.39	-7.03614457831325	3.72289156626506	6.2289156626506	-7.16125076640098	3.50214592274678	5.99386879215205	37.969465648855	-51.9847328244275	-35.2519083969466	102.413679308444	26.5688577306986	
1512129027051.3	-6.97590361445783	3.72289156626506	6.2289156626506	-7.13182096873084	3.51195585530349	5.98405885959534	40.4885496183206	-53.7251908396947	-35.4503816793893	102.413679308444	26.5688577306986	
1512129027055.21	-6.90361445783133	3.73493975903614	6.19277108433735	-7.02391171060699	3.57081545064378	6.00367872470877	43.0534351145038	-54.7175572519084	-35.4045801526718	102.413679308444	26.5688577306986	
1512129027059.11	-6.89156626506024	3.78313253012048	6.1566265060241	-7.05334150827713	3.73758430410791	5.96443899448191	45.6641221374046	-55.1908396946565	-35.175572519084	102.413679308444	26.5688577306986	
1512129027063.02	-6.89156626506024	3.79518072289157	6.06024096385542	-6.98467198038014	3.61986511342735	5.85652973635806	48.0152671755725	-55.2824427480916	-35.4503816793893	102.413679308444	26.5688577306986	
1512129027066.93	-6.89156626506024	3.79518072289157	5.97590361445783	-6.96505211526671	3.62967504598406	5.72900061312078	49.2519083969466	-55.6793893129771	-35.8167938931298	102.413679308444	26.5688577306986	
1512129027070.83	-6.87951807228916	3.74698795180723	5.92771084337349	-6.99448191293685	3.60024524831392	5.69957081545064	50.1221374045802	-56.0610687022901	-36.1679389312977	102.413679308444	26.5688577306986	
1512129027074.74	-6.86746987951807	3.74698795180723	5.92771084337349	-6.98467198038014	3.58062538320049	5.70938074800736	51.1297709923664	-55.7251908396947	-35.8473282442748	102.413679308444	26.5688577306986	
1512129027078.64	-6.81927710843374	3.71084337349398	5.92771084337349	-6.96505211526671	3.56100551808706	5.6701410177805	52.1068702290076	-54.4732824427481	-34.9618320610687	102.407772939883	26.5688577306986	
1512129027082.55	-6.78313253012048	3.71084337349398	5.95180722891566	-6.89638258736971	3.50214592274678	5.70938074800736	53.5419847328244	-51.7862595419847	-34.4274809160305	102.407772939883	26.5688577306986	
1512129027086.46	-6.7710843373494	3.73493975903614	5.93975903614458	-6.89638258736971	3.57081545064378	5.65052115266708	54.2748091603053	-48.8549618320611	-33.7404580152672	102.407772939883	26.5688577306986	
1512129027090.36	-6.79518072289157	3.79518072289157	5.89156626506024	-6.89638258736971	3.58062538320049	5.67995095033722	54.3358778625954	-46.1984732824427	-33.3587786259542	102.410726123779	26.5688577306986	
1512129027094.27	-6.80722891566265	3.8433734939759	5.83132530120482	-6.86695278969957	3.64929491109749	5.55242182709994	53.4351145038168	-44.3969465648855	-32.793893129771	102.410726123779	26.5688577306986	
1512129027098.18	-6.7710843373494	3.89156626506024	5.74698795180723	-6.86695278969957	3.70815450643777	5.48375229920294	52.2900763358779	-43.175572519084	-32.6564885496183	102.410726123779	26.5688577306986	
1512129027102.08	-6.72289156626506	3.86746987951807	5.71084337349398	-6.82771305947272	3.70815450643777	5.40527283874923	50.763358778626	-42.3206106870229	-33.3282442748092	102.413679308444	26.5688577306986	
1512129027105.99	-6.67469879518072	3.8433734939759	5.69879518072289	-6.76885346413243	3.69834457388105	5.38565297363581	47.3587786259542	-40.9618320610687	-33.4809160305344	102.413679308444	26.5688577306986	
1512129027109.89	-6.69879518072289	3.80722891566265	5.69879518072289	-6.75904353157572	3.66891477621091	5.3071735131821	42.9312977099237	-39.4503816793893	-33.618320610687	102.413679308444	26.5688577306986	
1512129027113.8	-6.72289156626506	3.75903614457831	5.69879518072289	-6.80809319435929	3.58062538320049	5.24831391784181	37.2671755725191	-38.3511450381679	-34.2595419847328	102.413679308444	26.5688577306986	
1512129027117.71	-6.74698795180723	3.72289156626506	5.69879518072289	-6.80809319435929	3.57081545064378	5.27774371551196	31.5419847328244	-38.2748091603053	-34.7786259541985	102.413679308444	26.5688577306986	
1512129027121.61	-6.74698795180723	3.67469879518072	5.71084337349398	-6.80809319435929	3.51195585530349	5.29736358062538	26.5496183206107	-38.412213740458	-35.2824427480916	102.413679308444	26.5688577306986	
1512129027125.52	-6.69879518072289	3.62650602409639	5.75903614457831	-6.80809319435929	3.4432863274065	5.35622317596567	22.5648854961832	-38.5190839694656	-35.969465648855	102.413679308444	26.5688577306986	
1512129027129.43	-6.63855421686747	3.60240963855422	5.80722891566265	-6.76885346413243	3.42366646229307	5.43470263641938	19.6030534351145	-37.9083969465649	-36.0763358778626	102.413679308444	26.5688577306986	
1512129027133.33	-6.62650602409639	3.59036144578313	5.83132530120482	-6.70999386879215	3.42366646229307	5.46413243408952	17.6793893129771	-35.8473282442748	-35.969465648855	102.413679308444	26.5688577306986	
1512129027137.24	-6.68674698795181	3.59036144578313	5.81927710843374	-6.76885346413243	3.40404659717964	5.47394236664623	16.0	-32.5038167938931	-35.2824427480916	102.410726123779	26.5688577306986	
1512129027141.14	-6.74698795180723	3.5421686746988	5.79518072289157	-6.80809319435929	3.38442673206622	5.50337216431637	14.4274809160305	-29.0839694656489	-34.3969465648855	102.410726123779	26.5688577306986	
1512129027145.05	-6.75903614457831	3.50602409638554	5.78313253012048	-6.84733292458614	3.33537706928265	5.48375229920294	12.9618320610687	-26.3511450381679	-33.5572519083969	102.410726123779	26.5688577306986	
1512129027148.96	-6.7710843373494	3.49397590361446	5.78313253012048	-6.86695278969957	3.29613733905579	5.49356223175966	12.1832061068702	-24.4885496183206	-32.5648854961832	102.404819756754	26.5688577306986	
1512129027152.86	-6.75903614457831	3.49397590361446	5.75903614457831	-6.80809319435929	3.33537706928265	5.46413243408952	11.4656488549618	-23.0839694656489	-32.0763358778626	102.404819756754	26.5688577306986	
1512129027156.77	-6.73493975903615	3.42168674698795	5.7710843373494	-6.77866339668915	3.28632740649908	5.44451256897609	10.7328244274809	-22.0458015267176	-32.0	102.404819756754	26.5688577306986	
1512129027160.68	-6.7710843373494	3.32530120481928	5.79518072289157	-6.84733292458614	3.1587982832618	5.47394236664623	10.0763358778626	-21.3129770992366	-32.3053435114504	102.410726123779	26.5688577306986	
1512129027164.58	-6.79518072289157	3.24096385542169	5.83132530120482	-6.86695278969957	3.09012875536481	5.51318209687308	9.95419847328244	-21.1297709923664	-32.381679389313	102.410726123779	26.5688577306986	
1512129027168.49	-6.79518072289157	3.13253012048193	5.85542168674699	-6.86695278969957	3.02145922746781	5.55242182709994	10.2748091603053	-21.5419847328244	-32.2900763358779	102.410726123779	26.5688577306986	
1512129027172.39	-6.78313253012048	3.04819277108434	5.86746987951807	-6.85714285714286	2.92335990190067	5.58185162477008	11.3740458015267	-22.5190839694656	-32.1679389312977	102.413679308444	26.5688577306986	
1512129027176.3	-6.74698795180723	3.01204819277108	5.86746987951807	-6.85714285714286	2.87431023911711	5.63090128755365	13.206106870229	-23.9083969465649	-32.030534351145	102.413679308444	26.5688577306986	
1512129027180.21	-6.75903614457831	3.0	5.93975903614458	-6.86695278969957	2.80564071122011	5.74862047823421	15.6030534351145	-25.6793893129771	-31.8473282442748	102.413679308444	26.5688577306986	
1512129027184.11	-6.75903614457831	3.0	6.01204819277108	-6.85714285714286	2.78602084610668	5.77805027590435	18.6564885496183	-27.2519083969466	-31.7862595419847	102.419585680077	26.5688577306986	
1512129027188.02	-6.73493975903615	3.0	6.07228915662651	-6.85714285714286	2.77621091354997	5.86633966891478	21.7404580152672	-28.7022900763359	-31.7709923664122	102.419585680077	26.5688577306986	
1512129027191.93	-6.67469879518072	2.92771084337349	6.12048192771084	-6.83752299202943	2.67811158798283	5.93500919681177	25.2977099236641	-30.0458015267176	-31.4351145038168	102.419585680077	26.5688577306986	
1512129027195.83	-6.59036144578313	2.83132530120482	6.1566265060241	-6.75904353157572	2.6584917228694	5.96443899448191	29.0839694656489	-30.8396946564885	-30.9618320610687	102.410726123779	26.5688577306986	
1512129027199.74	-6.49397590361446	2.73493975903614	6.16867469879518	-6.65113427345187	2.57020232985898	5.9546290619252	32.6106870229008	-31.4351145038168	-30.1221374045801	102.410726123779	26.5688577306986	
1512129027203.64	-6.44578313253012	2.68674698795181	6.1566265060241	-6.64132434089516	2.54077253218884	5.9546290619252	36.1832061068702	-30.824427480916	-29.1908396946565	102.410726123779	26.5688577306986	
1512129027207.55	-6.40963855421687	2.63855421686747	6.10843373493976	-6.52360515021459	2.47210300429185	5.89576946658492	39.4961832061069	-29.7404580152672	-28.4580152671756	102.413679308444	26.5688577306986	
1512129027211.46	-6.26506024096386	2.59036144578313	6.03614457831325	-6.46474555487431	2.39362354383814	5.82709993868792	42.9770992366412	-28.5648854961832	-27.6641221374046	102.413679308444	26.5688577306986	
1512129027215.36	-6.32530120481928	2.67469879518072	6.01204819277108	-6.4549356223176	2.45248313917842	5.78786020846107	45.7709923664122	-24.0763358778626	-27.206106870229	102.413679308444	26.5688577306986	
1512129027219.27	-6.19277108433735	2.6144578313253	5.96385542168675	-6.36664622930717	2.39362354383814	5.79767014101778	48.5038167938931	-22.0458015267176	-26.412213740458	102.407772939883	26.5688577306986	
1512129027223.18	-5.78313253012048	2.55421686746988	5.97590361445783	-6.08215818516248	2.364193746168	5.79767014101778	49.8931297709924	-18.2900763358779	-26.030534351145	102.407772939883	26.5688577306986	
1512129027227.08	-5.79518072289157	2.56626506024096	6.03614457831325	-5.89576946658492	2.32495401594114	5.82709993868792	49.5419847328244	-5.29770992366412	-26.9923664122137	102.407772939883	26.5688577306986	
1512129027230.99	-6.1566265060241	2.46987951807229	6.13253012048193	-6.02329858982219	2.295524218271	5.91538933169834	50.9465648854962	0.549618320610687	-27.3893129770992	102.410726123779	26.5688577306986	
1512129027234.89	-6.33734939759036	2.44578313253012	6.18072289156627	-6.28816676885346	2.27590435315757	5.93500919681177	51.8320610687023	4.10687022900763	-27.0687022900763	102.410726123779	26.5688577306986	
1512129027238.8	-6.3855421686747	2.48192771084337	6.33734939759036	-6.43531575720417	2.26609442060086	6.00367872470877	51.8167938931298	3.55725190839695	-25.8625954198473	102.410726123779	26.5688577306986	
1512129027242.71	-6.53012048192771	2.50602409638554	6.28915662650602	-6.55303494788473	2.295524218271	6.02329858982219	52.0	1.75572519083969	-24.9923664122137	102.407772939883	26.5688577306986	
1512129027246.61	-6.43373493975904	2.51807228915663	6.25301204819277	-6.57265481299816	2.35438381361128	6.01348865726548	51.2824427480916	-0.106870229007634	-24.5190839694656	102.407772939883	26.5688577306986	
1512129027250.52	-6.27710843373494	2.5421686746988	6.18072289156627	-6.51379521765788	2.33476394849785	5.99386879215205	50.0763358778626	1.17557251908397	-24.0152671755725	102.407772939883	26.5688577306986	
1512129027254.43	-6.08433734939759	2.49397590361446	6.14457831325301	-6.30778663396689	2.295524218271	5.83690987124464	48.3969465648855	4.01526717557252	-23.8015267175572	102.416632493877	26.5688577306986	
1512129027258.33	-5.96385542168675	2.51807228915663	6.09638554216868	-6.13120784794605	2.27590435315757	5.7388105456775	45.0229007633588	8.67175572519084	-23.2671755725191	102.416632493877	26.5688577306986	
1512129027262.24	-5.89156626506024	2.55421686746988	5.98795180722892	-6.06253832004905	2.27590435315757	5.75843041079093	40.412213740458	13.6488549618321	-23.236641221374	102.416632493877	26.5688577306986	
1512129027266.14	-5.86746987951807	2.60240963855422	5.86746987951807	-5.91538933169834	2.33476394849785	5.55242182709994	35.7099236641221	17.0992366412214	-23.7862595419847	102.413679308444	26.5688577306986	
1512129027270.05	-5.8433734939759	2.6144578313253	5.72289156626506	-5.92519926425506	2.37400367872471	5.49356223175966	30.9160305343511	18.9618320610687	-24.9465648854962	102.413679308444	26.5688577306986	
1512129027273.96	-5.85542168674699	2.5421686746988	5.63855421686747	-5.92519926425506	2.35438381361128	5.28755364806867	25.9389312977099	18.9007633587786	-26.1679389312977	102.413679308444	26.5688577306986	
1512129027277.86	-5.86746987951807	2.49397590361446	5.6144578313253	-5.90557939914163	2.34457388105457	5.22869405272839	20.5801526717557	17.236641221374	-26.8396946564885	102.401866574393	26.5688577306986	
1512129027281.77	-5.86746987951807	2.49397590361446	5.60240963855422	-5.94481912936849	2.30533415082771	5.24831391784181	11.1145038167939	15.7251908396947	-27.9236641221374	102.401866574393	26.5688577306986	
1512129027285.68	-5.68674698795181	3.2289156626506	5.67469879518072	-6.02329858982219	2.93316983445739	5.29736358062538	8.35114503816794	12.0763358778626	-26.3511450381679	102.401866574393	26.5688577306986	
1512129027289.58	-5.98795180722892	2.74698795180723	5.55421686746988	-6.07234825260576	2.84488044144696	5.2385039852851	8.76335877862595	-0.763358778625954	-13.4809160305344	102.404819756754	26.5688577306986	
1512129027293.49	-6.16867469879518	2.28915662650602	5.50602409638554	-6.20968730839975	2.30533415082771	5.22869405272839	4.54961832061069	-1.6793893129771	-17.3740458015267	102.404819756754	26.5688577306986	
1512129027297.39	-6.09638554216868	2.55421686746988	5.53012048192771	-6.20968730839975	2.31514408338443	5.21888412017167	2.58015267175573	-2.80916030534351	-19.587786259542	102.404819756754	26.5688577306986	
1512129027301.3	-6.06024096385542	2.5421686746988	5.51807228915663	-6.13120784794605	2.33476394849785	5.31698344573881	3.51145038167939	-5.19083969465649	-21.8625954198473	102.407772939883	26.5688577306986	
1512129027305.21	-5.93975903614458	2.60240963855422	5.43373493975904	-6.03310852237891	2.34457388105457	5.16983445738811	5.14503816793893	-6.76335877862595	-21.9083969465649	102.407772939883	26.5688577306986	
1512129027309.11	-5.92771084337349	2.71084337349398	5.31325301204819	-6.04291845493562	2.41324340895156	5.11097486204782	4.76335877862595	-4.85496183206107	-22.5496183206107	102.407772939883	26.5688577306986	
1512129027313.02	-6.01204819277108	2.7710843373494	5.14457831325301	-5.99386879215205	2.52115266707541	4.85591661557327	2.73282442748092	-3.08396946564885	-24.1374045801527	102.407772939883	26.5688577306986	
1512129027316.93	-6.0	2.86746987951807	5.01204819277108	-6.03310852237891	2.57020232985898	4.79705702023299	0.33587786259542	-2.3969465648855	-27.0839694656489	102.407772939883	26.5688577306986	
1512129027320.83	-5.90361445783133	2.86746987951807	4.90361445783133	-5.99386879215205	2.64868179031269	4.62047823421214	-2.3969465648855	-2.73282442748092	-29.969465648855	102.407772939883	26.5688577306986	
1512129027324.74	-5.86746987951807	2.75903614457831	4.80722891566265	-5.99386879215205	2.59963212752912	4.48313917841815	-4.82442748091603	-3.57251908396947	-31.5267175572519	102.413679308444	26.5688577306986	
1512129027328.64	-5.87951807228916	2.80722891566265	4.79518072289157	-5.97424892703863	2.58982219497241	4.41446965052115	-7.40458015267176	-4.50381679389313	-32.1832061068702	102.413679308444	26.5688577306986	
1512129027332.55	-5.95180722891566	2.86746987951807	4.86746987951807	-6.04291845493562	2.5800122624157	4.47332924586144	-9.77099236641221	-4.53435114503817	-32.0458015267176	102.413679308444	26.5688577306986	
1512129027336.46	-6.12048192771084	3.0	4.96385542168675	-6.1017780502759	2.66830165542612	4.57142857142857	-12.0	-5.29770992366412	-31.3587786259542	102.407772939883	26.5688577306986	
1512129027340.36	-6.31325301204819	3.06024096385542	5.04819277108434	-6.25873697118332	2.80564071122011	4.67933782955242	-14.1374045801527	-7.38931297709924	-31.1908396946565	102.407772939883	26.5688577306986	
1512129027344.27	-6.5421686746988	3.04819277108434	5.08433734939759	-6.39607602697731	2.78602084610668	4.69895769466585	-16.793893129771	-11.3129770992366	-29.9083969465649	102.407772939883	26.5688577306986	
1512129027348.18	-6.72289156626506	3.08433734939759	5.1566265060241	-6.73942366646229	2.85469037400368	4.75781729000613	-19.2519083969466	-16.9770992366412	-28.0763358778626	102.407772939883	26.5688577306986	
1512129027352.08	-6.87951807228916	3.16867469879518	5.28915662650602	-6.99448191293685	2.93316983445739	4.85591661557327	-21.1297709923664	-23.9236641221374	-25.7557251908397	102.407772939883	26.5688577306986	
1512129027355.99	-7.04819277108434	3.20481927710843	5.43373493975904	-7.1023911710607	2.98221949724096	4.93439607602698	-21.8473282442748	-31.5725190839695	-23.2519083969466	102.407772939883	26.5688577306986	
1512129027359.89	-7.19277108433735	3.25301204819277	5.57831325301205	-7.2495401594114	3.04107909258124	5.13059472716125	-21.8778625954198	-38.4732824427481	-21.6793893129771	102.416632493877	26.5688577306986	
1512129027363.8	-7.31325301204819	3.21686746987952	5.45783132530121	-7.35744941753525	3.05088902513795	5.0913549969344	-21.5419847328244	-40.793893129771	-21.618320610687	102.416632493877	26.5688577306986	
1512129027367.71	-7.25301204819277	3.26506024096386	5.62650602409639	-7.35744941753525	3.06069895769467	5.28755364806867	-20.6717557251908	-43.5419847328244	-22.1221374045801	102.416632493877	26.5688577306986	
1512129027371.61	-7.09638554216868	3.28915662650602	5.86746987951807	-7.18087063151441	3.09993868792152	5.51318209687308	-17.5267175572519	-50.5190839694656	-22.7786259541985	102.410726123779	26.5688577306986	
1512129027375.52	-6.91566265060241	3.27710843373494	6.07228915662651	-7.08277130594727	3.10974862047823	5.67995095033722	-13.9541984732824	-56.1374045801527	-22.8091603053435	102.410726123779	26.5688577306986	
1512129027379.43	-6.81927710843374	3.33734939759036	6.25301204819277	-6.94543225015328	3.10974862047823	5.89576946658492	-11.4961832061069	-56.2290076335878	-22.824427480916	102.410726123779	26.5688577306986	
1512129027383.33	-6.92771084337349	3.43373493975904	6.36144578313253	-6.98467198038014	3.18822808093194	6.01348865726548	-9.89312977099237	-54.1832061068702	-22.8549618320611	102.407772939883	26.5688577306986	
1512129027387.24	-7.16867469879518	3.44578313253012	6.34939759036145	-7.09258123850398	3.25689760882894	6.07234825260576	-8.42748091603053	-53.0534351145038	-23.4656488549618	102.407772939883	26.5688577306986	
1512129027391.14	-7.31325301204819	3.44578313253012	6.26506024096386	-7.25935009196812	3.23727774371551	5.96443899448191	-9.26717557251908	-50.6564885496183	-27.5725190839695	102.407772939883	26.5688577306986	
1512129027395.05	-7.36144578313253	3.50602409638554	6.24096385542169	-7.28877988963826	3.24708767627223	5.91538933169834	-12.3358778625954	-44.9770992366412	-32.1832061068702	102.404819756754	26.5688577306986	
1512129027398.96	-7.36144578313253	3.51807228915663	6.20481927710843	-7.32801961986511	3.35499693439608	5.75843041079093	-18.6717557251908	-35.3282442748092	-40.1374045801527	102.404819756754	26.5688577306986	
1512129027402.86	-7.36144578313253	3.66265060240964	6.20481927710843	-7.40649908031882	3.4432863274065	5.74862047823421	-25.4656488549618	-31.0687022900763	-43.618320610687	102.404819756754	26.5688577306986	
1512129027406.77	-7.34939759036145	3.5421686746988	6.16867469879518	-7.44573881054568	3.3746167995095	5.69957081545064	-31.7862595419847	-31.6641221374046	-44.1221374045802	102.404819756754	26.5688577306986	
1512129027410.68	-7.32530120481928	3.43373493975904	6.20481927710843	-7.43592887798896	3.35499693439608	5.76824034334764	-37.7251908396947	-33.8015267175572	-45.2824427480916	102.404819756754	26.5688577306986	
1512129027414.58	-7.27710843373494	3.44578313253012	6.3855421686747	-7.33782955242183	3.25689760882894	5.87614960147149	-42.5801526717557	-36.8702290076336	-46.8091603053435	102.404819756754	26.5688577306986	
1512129027418.49	-7.18072289156627	3.39759036144578	6.56626506024096	-7.22011036174126	3.23727774371551	6.20968730839975	-45.4503816793893	-39.6335877862595	-49.3893129770992	102.410726123779	26.5688577306986	
1512129027422.39	-7.06024096385542	3.30120481927711	6.75903614457831	-7.13182096873084	3.12936848559166	6.36664622930717	-45.7862595419847	-40.6106870229008	-52.8091603053435	102.410726123779	26.5688577306986	
1512129027426.3	-7.03614457831325	3.13253012048193	6.93975903614458	-7.07296137339056	2.98221949724096	6.6707541385653	-44.1679389312977	-40.0	-56.3358778625954	102.410726123779	26.5688577306986	
1512129027430.21	-7.06024096385542	3.12048192771084	7.07228915662651	-7.1023911710607	2.92335990190067	6.77866339668915	-40.824427480916	-38.2290076335878	-58.6564885496183	102.407772939883	26.5688577306986	
1512129027434.11	-7.10843373493976	3.08433734939759	7.2289156626506	-7.13182096873084	2.90374003678725	7.01410177805028	-36.3664122137405	-38.2442748091603	-61.0381679389313	102.407772939883	26.5688577306986	
1512129027438.02	-7.10843373493976	3.07228915662651	7.34939759036145	-7.11220110361741	2.89393010423053	7.14163090128755	-31.5725190839695	-37.0839694656489	-63.7557251908397	102.407772939883	26.5688577306986	
1512129027441.93	-7.08433734939759	2.98795180722892	7.40963855421687	-7.11220110361741	2.83507050889025	7.21030042918455	-26.1374045801527	-35.2977099236641	-66.6564885496183	102.401866574393	26.5688577306986	
1512129027445.83	-7.03614457831325	2.92771084337349	7.51807228915663	-7.14163090128755	2.7271612507664	7.33782955242183	-20.793893129771	-32.6106870229008	-68.824427480916	102.401866574393	26.5688577306986	
1512129027449.74	-7.01204819277108	2.79518072289157	7.5421686746988	-7.14163090128755	2.6584917228694	7.39668914776211	-15.7557251908397	-29.6641221374046	-69.8625954198473	102.401866574393	26.5688577306986	
1512129027453.64	-7.04819277108434	2.63855421686747	7.51807228915663	-7.15144083384427	2.49172286940527	7.46535867565911	-11.4809160305344	-27.4198473282443	-70.4427480916031	102.410726123779	26.5688577306986	
1512129027457.55	-6.98795180722892	2.4578313253012	7.60240963855422	-7.13182096873084	2.38381361128142	7.49478847332925	-7.29770992366412	-25.7709923664122	-70.7175572519084	102.410726123779	26.5688577306986	
1512129027461.46	-6.86746987951807	2.57831325301205	7.60240963855422	-7.02391171060699	2.39362354383814	7.56345800122624	-3.77099236641221	-20.0916030534351	-71.8167938931298	102.410726123779	26.5688577306986	
1512129027465.36	-6.89156626506024	2.51807228915663	7.50602409638554	-7.02391171060699	2.28571428571429	7.47516860821582	0.549618320610687	-17.0381679389313	-72.5801526717557	102.407772939883	26.5688577306986	
1512129027469.27	-6.40963855421687	2.96385542168675	7.56626506024097	-6.95524218270999	2.0797057020233	7.48497854077253	5.06870229007634	-18.6870229007634	-71.8320610687023	102.407772939883	26.5688577306986	
1512129027473.18	-7.25301204819277	1.75903614457831	7.6144578313253	-6.99448191293685	1.84426732066217	7.37706928264868	13.2519083969466	-23.7099236641221	-60.9312977099237	102.407772939883	26.5688577306986	
1512129027477.08	-7.34939759036145	2.03614457831325	7.33734939759036	-7.22011036174126	1.77559779276517	7.07296137339056	9.6030534351145	-21.0687022900763	-71.1603053435115	102.413679308444	26.5688577306986	
1512129027480.99	-7.26506024096386	1.92771084337349	7.48192771084337	-7.44573881054568	1.76578786020846	7.26916002452483	10.3053435114504	-32.1374045801527	-66.4732824427481	102.413679308444	26.5688577306986	
1512129027484.89	-6.34939759036145	1.27710843373494	8.18072289156627	-6.80809319435929	1.42244022072348	7.79889638258737	11.4809160305344	-37.2519083969466	-62.8091603053435	102.413679308444	26.5688577306986	
1512129027488.8	-6.6144578313253	2.28915662650602	7.90361445783133	-6.80809319435929	1.88350705088903	7.8185162477008	14.5496183206107	-26.9770992366412	-62.412213740458	102.410726123779	26.5688577306986	
1512129027492.71	-6.56626506024096	1.78313253012048	8.03614457831325	-6.74923359901901	1.63825873697118	7.90680564071122	22.6717557251908	-35.0229007633588	-59.7709923664122	102.410726123779	26.5688577306986	
1512129027496.61	-6.63855421686747	1.48192771084337	8.13253012048193	-6.78847332924586	1.4322501532802	7.88718577559779	26.0763358778626	-34.5190839694656	-56.7022900763359	102.410726123779	26.5688577306986	
1512129027500.52	-6.21686746987952	0.831325301204819	8.50602409638554	-6.55303494788473	0.804414469650521	8.15205395462906	27.6488549618321	-33.3435114503817	-52.2442748091603	102.407772939883	26.5688577306986	
1512129027504.43	-6.68674698795181	1.71084337349398	8.10843373493976	-6.91600245248314	1.32434089515635	8.02452483139178	27.6641221374046	-21.7099236641221	-48.030534351145	102.407772939883	26.5688577306986	
1512129027508.33	-6.73493975903615	1.33734939759036	8.13253012048193	-6.95524218270999	1.1477621091355	7.92642550582465	31.4351145038168	-30.4274809160305	-40.6106870229008	102.407772939883	26.5688577306986	
1512129027512.24	-6.75903614457831	1.20481927710843	8.1566265060241	-6.99448191293685	0.96137339055794	7.85775597792765	32.0152671755725	-33.0229007633588	-35.3893129770992	102.413679308444	26.5688577306986	
1512129027516.14	-6.62650602409639	1.16867469879518	8.12048192771084	-6.95524218270999	0.922133660331085	7.83813611281422	32.0610687022901	-36.6259541984733	-29.3282442748092	102.413679308444	26.5688577306986	
1512129027520.05	-6.46987951807229	1.20481927710843	8.04819277108434	-6.78847332924586	0.951563458001226	7.8185162477008	31.3587786259542	-37.0076335877863	-23.2671755725191	102.413679308444	26.5688577306986	
1512129027523.96	-6.34939759036145	1.14457831325301	7.97590361445783	-6.51379521765788	0.863274064990803	7.7498467198038	28.9007633587786	-36.7022900763359	-18.8091603053435	102.410726123779	26.5688577306986	
1512129027527.86	-6.19277108433735	1.09638554216867	7.87951807228916	-6.42550582464746	0.824034334763948	7.61250766400981	25.206106870229	-35.0687022900763	-15.7404580152672	102.410726123779	26.5688577306986	
1512129027531.77	-6.10843373493976	1.03614457831325	7.8433734939759	-6.32740649908032	0.784794604537094	7.54383813611281	20.5038167938931	-33.7557251908397	-13.6946564885496	102.410726123779	26.5688577306986	
1512129027535.68	-6.10843373493976	0.951807228915663	7.89156626506024	-6.28816676885346	0.716125076640098	7.49478847332925	15.206106870229	-33.2213740458015	-11.969465648855	102.407772939883	26.5688577306986	
1512129027539.58	-6.13253012048193	0.831325301204819	7.97590361445783	-6.27835683629675	0.58859595340282	7.6026977314531	10.1679389312977	-33.969465648855	-10.763358778626	102.407772939883	26.5688577306986	
1512129027543.49	-6.14457831325301	0.72289156626506	8.12048192771084	-6.29797670141018	0.343347639484979	7.73022685469037	5.52671755725191	-35.206106870229	-8.70229007633588	102.407772939883	26.5688577306986	
1512129027547.39	-6.13253012048193	0.590361445783133	8.25301204819277	-6.30778663396689	0.362967504598406	7.85775597792765	1.11450381679389	-35.618320610687	-6.6412213740458	102.407772939883	26.5688577306986	
1512129027551.3	-6.03614457831325	0.542168674698795	8.33734939759036	-6.24892703862661	0.255058246474555	7.99509503372164	-3.52671755725191	-36.3358778625954	-4.44274809160305	102.407772939883	26.5688577306986	
1512129027555.21	-5.98795180722892	0.481927710843373	8.55421686746988	-6.22930717351318	0.215818516247701	8.13243408951563	-8.77862595419847	-36.9312977099237	-1.72519083969466	102.407772939883	26.5688577306986	
1512129027559.11	-5.96385542168675	0.457831325301205	8.73493975903615	-6.11158798283262	0.18638871857756	8.30901287553648	-14.2748091603053	-36.381679389313	0.488549618320611	102.404819756754	26.5688577306986	
1512129027563.02	-5.95180722891566	0.433734939759036	8.83132530120482	-6.07234825260576	0.18638871857756	8.41692213366033	-18.8396946564886	-35.5114503816794	1.54198473282443	102.404819756754	26.5688577306986	
1512129027566.93	-6.02409638554217	0.36144578313253	8.83132530120482	-6.14101778050276	0.0686695278969957	8.54445125689761	-21.5725190839695	-35.3282442748092	2.33587786259542	102.404819756754	26.5688577306986	
1512129027570.83	-6.04819277108434	0.289156626506024	8.75903614457831	-6.13120784794605	0.0392397302268547	8.58369098712446	-22.3358778625954	-35.8778625954198	2.9618320610687	102.413679308444	26.5688577306986	
1512129027574.74	-6.03614457831325	0.240963855421687	8.66265060240964	-6.15082771305947	-0.0196198651134273	8.56407112201104	-21.5725190839695	-36.7480916030534	3.74045801526718	102.413679308444	26.5688577306986	
1512129027578.64	-6.04819277108434	0.265060240963855	8.59036144578313	-6.11158798283262	0.0	8.4659717964439	-20.412213740458	-37.5267175572519	4.48854961832061	102.413679308444	26.5688577306986	
1512129027582.55	-5.96385542168675	0.144578313253012	8.3855421686747	-6.09196811771919	-0.029429797670141	8.3973022685469	-19.1603053435115	-38.6717557251908	4.83969465648855	102.404819756754	26.5688577306986	
1512129027586.46	-5.97590361445783	0.0	8.31325301204819	-6.00367872470877	-0.206008583690987	8.21091354996934	-16.7328244274809	-38.793893129771	3.78625954198473	102.404819756754	26.5688577306986	
1512129027590.36	-5.86746987951807	0.27710843373494	8.48192771084337	-5.91538933169834	-0.0490496627835684	8.35806253832005	-12.8854961832061	-34.6870229007634	0.580152671755725	102.404819756754	26.5688577306986	
1512129027594.27	-5.89156626506024	0.493975903614458	8.42168674698795	-5.99386879215205	0.088289393010423	8.27958307786634	-10.4732824427481	-27.9847328244275	-1.20610687022901	102.407772939883	26.5688577306986	
1512129027598.18	-5.92771084337349	0.397590361445783	8.34939759036145	-6.07234825260576	0.088289393010423	8.11281422440221	-9.95419847328244	-27.175572519084	0.870229007633588	102.407772939883	26.5688577306986	
1512129027602.08	-5.78313253012048	0.373493975903614	8.33734939759036	-5.96443899448191	0.127529123237278	8.08338442673207	-11.6946564885496	-30.5038167938931	3.61832061068702	102.407772939883	26.5688577306986	
1512129027605.99	-5.3855421686747	0.650602409638554	8.56626506024096	-5.59166155732679	0.264868179031269	8.24034334763948	-12.8702290076336	-32.9923664122137	4.13740458015267	102.404819756754	26.5688577306986	
1512129027609.89	-5.68674698795181	0.36144578313253	8.21686746987952	-5.84671980380135	0.137339055793991	8.09319435928878	-13.8778625954198	-27.1297709923664	1.26717557251908	102.404819756754	26.5688577306986	
1512129027613.8	-5.85542168674699	0.542168674698795	8.24096385542169	-5.85652973635806	0.196198651134273	8.05395462906193	-11.8167938931298	-30.793893129771	5.69465648854962	102.404819756754	26.5688577306986	
1512129027617.71	-5.80722891566265	0.566265060240964	8.31325301204819	-5.86633966891478	0.18638871857756	8.14224402207235	-11.4961832061069	-31.4809160305343	6.9618320610687	102.410726123779	26.5688577306986	
1512129027621.61	-5.5421686746988	1.13253012048193	8.57831325301205	-5.68976088289393	0.353157572041692	8.35806253832005	-9.31297709923664	-30.3206106870229	6.87022900763359	102.410726123779	26.5688577306986	
1512129027625.52	-5.90361445783133	0.903614457831325	8.14457831325301	-5.97424892703863	0.58859595340282	8.07357449417535	-8.19847328244275	-20.5954198473282	4.54961832061069	102.410726123779	26.5688577306986	
1512129027629.43	-6.07228915662651	1.14457831325301	8.09638554216868	-6.09196811771919	0.696505211526671	7.87737584304108	-4.73282442748092	-24.2595419847328	9.93893129770992	102.407772939883	26.5688577306986	
1512129027633.33	-5.98795180722892	1.32530120481928	8.16867469879518	-6.11158798283262	0.96137339055794	7.85775597792765	-5.96946564885496	-27.4351145038168	12.0458015267176	102.407772939883	26.5688577306986	
1512129027637.24	-5.8433734939759	1.43373493975904	8.28915662650602	-5.98405885959534	1.10852237890865	7.99509503372164	-8.19847328244275	-31.4351145038168	12.1679389312977	102.407772939883	26.5688577306986	
1512129027641.14	-5.80722891566265	1.49397590361446	8.3855421686747	-5.93500919681177	1.15757204169221	8.05395462906193	-11.4351145038168	-31.587786259542	12.6870229007634	102.407772939883	26.5688577306986	
1512129027645.05	-5.8433734939759	1.49397590361446	8.39759036144578	-5.9546290619252	1.19681177191907	8.13243408951563	-13.9541984732824	-29.3435114503817	12.8091603053435	102.407772939883	26.5688577306986	
1512129027648.96	-5.91566265060241	1.49397590361446	8.37349397590362	-5.98405885959534	1.2164316370325	8.12262415695892	-15.0687022900763	-27.6488549618321	14.0458015267176	102.407772939883	26.5688577306986	
1512129027652.86	-5.87951807228916	1.53012048192771	8.33734939759036	-6.04291845493562	1.20662170447578	8.10300429184549	-15.1450381679389	-26.3206106870229	15.8473282442748	102.401866574393	26.5688577306986	
1512129027656.77	-5.85542168674699	1.60240963855422	8.25301204819277	-5.9546290619252	1.31453096259963	8.07357449417535	-15.0229007633588	-23.4503816793893	17.8473282442748	102.401866574393	26.5688577306986	
1512129027660.68	-5.86746987951807	1.68674698795181	8.21686746987952	-6.01348865726548	1.35377069282649	8.0343347639485	-15.1145038167939	-19.5725190839695	19.0992366412214	102.401866574393	26.5688577306986	
1512129027664.58	-5.89156626506024	1.71084337349398	8.21686746987952	-5.99386879215205	1.42244022072348	7.99509503372164	-16.5190839694656	-15.2977099236641	20.1984732824427	102.410726123779	26.5688577306986	
1512129027668.49	-5.91566265060241	1.72289156626506	8.25301204819277	-6.01348865726548	1.45187001839362	7.99509503372164	-18.0458015267176	-12.4274809160305	21.3129770992366	102.410726123779	26.5688577306986	
1512129027672.39	-5.96385542168675	1.71084337349398	8.26506024096386	-6.04291845493562	1.4322501532802	7.9656652360515	-20.030534351145	-10.9160305343511	21.8167938931298	102.410726123779	26.5688577306986	
1512129027676.3	-6.0	1.72289156626506	8.26506024096386	-6.09196811771919	1.45187001839362	8.07357449417535	-22.0916030534351	-10.030534351145	22.3511450381679	102.395960211975	26.5688577306986	
1512129027680.21	-6.02409638554217	1.78313253012048	8.28915662650602	-6.08215818516248	1.46167995095034	8.11281422440221	-23.4503816793893	-10.3664122137405	22.9312977099237	102.395960211975	26.5688577306986	
1512129027684.11	-6.03614457831325	1.83132530120482	8.37349397590362	-6.08215818516248	1.50091968117719	8.16186388718578	-24.7175572519084	-11.2824427480916	22.6412213740458	102.395960211975	26.5688577306986	
1512129027688.02	-6.12048192771084	1.87951807228916	8.43373493975904	-6.08215818516248	1.54996934396076	8.20110361741263	-25.1450381679389	-11.7557251908397	21.7557251908397	102.407772939883	26.5688577306986	
1512129027691.93	-6.16867469879518	1.93975903614458	8.5421686746988	-6.16063764561619	1.61863887185776	8.27958307786634	-25.4961832061069	-12.3053435114504	20.5496183206107	102.407772939883	26.5688577306986	
1512129027695.83	-6.16867469879518	1.95180722891566	8.6144578313253	-6.1704475781729	1.69711833231147	8.35806253832005	-25.2977099236641	-12.7328244274809	18.9923664122137	102.407772939883	26.5688577306986	
1512129027699.74	-6.16867469879518	1.96385542168675	8.67469879518072	-6.21949724095647	1.67749846719804	8.48559166155733	-25.7557251908397	-12.6412213740458	16.8549618320611	102.395960211975	26.5688577306986	
1512129027703.64	-6.16867469879518	1.96385542168675	8.68674698795181	-6.19006744328633	1.67749846719804	8.43654199877376	-26.5648854961832	-12.4732824427481	15.0076335877863	102.395960211975	26.5688577306986	
1512129027707.55	-6.19277108433735	1.96385542168675	8.63855421686747	-6.18025751072961	1.70692826486818	8.44635193133047	-27.6641221374046	-11.8778625954198	12.6717557251908	102.395960211975	26.5688577306986	
1512129027711.46	-6.20481927710843	2.0	8.57831325301205	-6.20968730839975	1.76578786020846	8.38749233599019	-29.4045801526718	-11.7709923664122	10.0458015267176	102.404819756754	26.5688577306986	
1512129027715.36	-6.20481927710843	2.07228915662651	8.57831325301205	-6.19006744328633	1.78540772532189	8.40711220110362	-29.5572519083969	-12.793893129771	7.34351145038168	102.404819756754	26.5688577306986	
1512129027719.27	-6.20481927710843	2.08433734939759	8.5421686746988	-6.21949724095647	1.84426732066217	8.38749233599019	-29.2213740458015	-12.9007633587786	5.11450381679389	102.404819756754	26.5688577306986	
1512129027723.18	-6.21686746987952	2.1566265060241	8.56626506024096	-6.24892703862661	1.89331698344574	8.41692213366033	-28.7022900763359	-11.8625954198473	3.34351145038168	102.410726123779	26.5688577306986	
1512129027727.08	-6.24096385542169	2.20481927710843	8.59036144578313	-6.29797670141018	1.94236664622931	8.40711220110362	-28.6564885496183	-11.2519083969466	2.10687022900763	102.410726123779	26.5688577306986	
1512129027730.99	-6.03614457831325	2.0	8.74698795180723	-6.12139791538933	1.7952176578786	8.57388105456775	-28.4274809160305	-10.6259541984733	0.625954198473282	102.410726123779	26.5688577306986	
1512129027734.89	-6.14457831325301	2.49397590361446	8.66265060240964	-6.12139791538933	2.0797057020233	8.58369098712446	-27.206106870229	-7.69465648854962	-1.08396946564886	102.413679308444	26.5688577306986	
1512129027738.8	-6.37349397590361	2.25301204819277	8.5421686746988	-6.37645616186389	2.08951563458001	8.42673206621704	-26.6870229007634	-6.21374045801527	-2.97709923664122	102.413679308444	26.5688577306986	
1512129027742.71	-6.49397590361446	2.32530120481928	8.55421686746988	-6.51379521765788	2.15818516247701	8.41692213366033	-27.0534351145038	-9.61832061068702	-2.58015267175573	102.413679308444	26.5688577306986	
1512129027746.61	-6.44578313253012	2.3855421686747	8.65060240963856	-6.48436541998774	2.18761496014715	8.44635193133047	-26.7786259541985	-12.1526717557252	-3.23664122137405	102.401866574393	26.5688577306986	
1512129027750.52	-6.10843373493976	2.33734939759036	8.78313253012048	-6.16063764561619	2.0797057020233	8.65236051502146	-26.6870229007634	-10.8396946564885	-4.62595419847328	102.401866574393	26.5688577306986	
1512129027754.43	-6.19277108433735	2.51807228915663	8.72289156626506	-6.14101778050276	2.14837522992029	8.66217044757817	-26.4732824427481	-3.57251908396947	-8.35114503816794	102.401866574393	26.5688577306986	
1512129027758.33	-6.3855421686747	2.36144578313253	8.46987951807229	-6.40588595953403	2.15818516247701	8.40711220110362	-24.0610687022901	-8.25954198473282	-7.86259541984733	102.401866574393	26.5688577306986	
1512129027762.24	-6.49397590361446	2.40963855421687	8.53012048192771	-6.46474555487431	2.16799509503372	8.35806253832005	-23.0076335877863	-12.2595419847328	-6.88549618320611	102.401866574393	26.5688577306986	
1512129027766.14	-6.40963855421687	2.40963855421687	8.6144578313253	-6.48436541998774	2.17780502759043	8.42673206621704	-21.8931297709924	-14.9465648854962	-6.91603053435115	102.401866574393	26.5688577306986	
1512129027770.05	-6.24096385542169	2.39759036144578	8.74698795180723	-6.29797670141018	2.20723482526058	8.57388105456775	-21.3893129770992	-14.3206106870229	-7.40458015267176	102.407772939883	26.5688577306986	
1512129027773.96	-5.79518072289157	2.42168674698795	9.10843373493976	-5.98405885959534	2.08951563458001	8.77007970570202	-20.5190839694656	-6.90076335877863	-9.6793893129771	102.407772939883	26.5688577306986	
1512129027777.86	-6.14457831325301	2.49397590361446	8.68674698795181	-6.19006744328633	2.24647455548743	8.67198038013489	-20.7022900763359	-1.90839694656489	-13.6030534351145	102.407772939883	26.5688577306986	
1512129027781.77	-6.31325301204819	2.26506024096386	8.73493975903615	-6.30778663396689	2.09932556713673	8.60331085223789	-19.7404580152672	-4.59541984732824	-11.7862595419847	102.3989133928	26.5688577306986	
1512129027785.68	-6.37349397590361	2.26506024096386	8.8433734939759	-6.47455548743102	2.04046597179644	8.63274064990803	-20.3969465648855	-5.09923664122137	-9.92366412213741	102.3989133928	26.5688577306986	
1512129027789.58	-6.10843373493976	2.19277108433735	9.08433734939759	-6.16063764561619	1.83445738810546	8.94665849172287	-21.1450381679389	-3.87786259541985	-9.16030534351145	102.3989133928	26.5688577306986	
1512129027793.49	-6.03614457831325	2.51807228915663	9.36144578313253	-5.96443899448191	2.03065603923973	9.10361741263029	-21.8320610687023	10.6870229007634	-11.0839694656489	102.407772939883	26.5688577306986	
1512129027797.39	-6.20481927710843	2.44578313253012	9.04819277108434	-6.1704475781729	2.20723482526058	8.93684855916615	-21.1450381679389	7.57251908396947	-11.9236641221374	102.407772939883	26.5688577306986	
1512129027801.3	-6.19277108433735	2.44578313253012	9.12048192771084	-6.20968730839975	2.27590435315757	8.95646842427958	-22.5496183206107	5.06870229007634	-11.2824427480916	102.407772939883	26.5688577306986	
1512129027805.21	-5.95180722891566	1.97590361445783	9.13253012048193	-6.19006744328633	2.0110361741263	9.00551808706315	-23.1450381679389	5.96946564885496	-14.0916030534351	102.401866574393	26.5688577306986	
1512129027809.11	-6.26506024096386	2.44578313253012	9.19277108433735	-6.28816676885346	2.17780502759043	8.99570815450644	-24.0	19.2671755725191	-16.4885496183206	102.401866574393	26.5688577306986	
1512129027813.02	-6.5421686746988	2.42168674698795	8.78313253012048	-6.51379521765788	2.14837522992029	8.77988963825874	-22.824427480916	11.8778625954198	-16.824427480916	102.401866574393	26.5688577306986	
1512129027816.93	-6.43373493975904	2.37349397590361	8.78313253012048	-6.52360515021459	2.16799509503372	8.67198038013489	-21.6793893129771	4.35114503816794	-13.6641221374046	102.401866574393	26.5688577306986	
1512129027820.83	-6.18072289156627	2.26506024096386	8.78313253012048	-6.42550582464746	2.10913549969344	8.6817903126916	-20.2595419847328	1.64885496183206	-13.9541984732824	102.401866574393	26.5688577306986	
1512129027824.74	-5.48192771084337	1.7710843373494	9.18072289156627	-5.78786020846107	1.83445738810546	8.99570815450644	-17.8473282442748	8.7175572519084	-15.9083969465649	102.401866574393	26.5688577306986	
1512129027828.64	-6.03614457831325	2.28915662650602	8.75903614457831	-5.75843041079093	1.88350705088903	8.87798896382587	-17.8320610687023	18.4885496183206	-19.4809160305344	102.407772939883	26.5688577306986	
1512129027832.55	-6.0	1.85542168674699	8.45783132530121	-6.06253832004905	1.80502759043532	8.49540159411404	-15.9083969465649	9.17557251908397	-19.3740458015267	102.407772939883	26.5688577306986	
1512129027836.46	-6.08433734939759	1.71084337349398	8.36144578313253	-6.1017780502759	1.55977927651747	8.22072348252606	-14.3664122137405	4.85496183206107	-17.587786259542	102.407772939883	26.5688577306986	
1512129027840.36	-5.51807228915663	1.25301204819277	8.55421686746988	-6.04291845493562	1.47148988350705	8.2501532801962	-13.7404580152672	3.31297709923664	-17.7251908396947	102.3989133928	26.5688577306986	
1512129027844.27	-5.09638554216868	0.795180722891566	8.86746987951807	-5.48375229920294	0.657265481299816	8.65236051502146	-7.96946564885496	20.1832061068702	-13.8473282442748	102.3989133928	26.5688577306986	
1512129027848.18	-5.65060240963855	1.01204819277108	8.7710843373494	-5.55242182709994	0.647455548743102	8.64255058246475	-5.92366412213741	29.0076335877863	-11.2824427480916	102.3989133928	26.5688577306986	
1512129027852.08	-5.71084337349398	1.08433734939759	8.49397590361446	-5.69957081545064	0.725935009196812	8.44635193133047	-2.80916030534351	30.2442748091603	-11.9541984732824	102.413679308444	26.5688577306986	
1512129027855.99	-5.65060240963855	1.13253012048193	8.31325301204819	-5.75843041079093	0.77498467198038	8.22072348252606	1.58778625954198	31.1908396946565	-11.6030534351145	102.413679308444	26.5688577306986	
1512129027859.89	-5.7710843373494	1.10843373493976	8.24096385542169	-5.79767014101778	0.77498467198038	8.17167381974249	5.52671755725191	33.0839694656489	-11.5572519083969	102.413679308444	26.5688577306986	
1512129027863.8	-5.79518072289157	1.08433734939759	8.2289156626506	-5.8859595340282	0.725935009196812	8.09319435928878	8.85496183206107	33.9389312977099	-10.7175572519084	102.410726123779	26.5688577306986	
1512129027867.71	-5.69879518072289	1.08433734939759	8.26506024096386	-5.85652973635806	0.794604537093807	8.09319435928878	11.9389312977099	34.3664122137405	-10.9923664122137	102.410726123779	26.5688577306986	
1512129027871.61	-5.72289156626506	1.14457831325301	8.31325301204819	-5.83690987124464	0.794604537093807	8.15205395462906	16.2595419847328	34.5343511450382	-11.2824427480916	102.410726123779	26.5688577306986	
1512129027875.52	-5.73493975903615	1.24096385542169	8.3855421686747	-5.80748007357449	0.892703862660944	8.17167381974249	20.1221374045801	36.3206106870229	-12.5801526717557	102.407772939883	26.5688577306986	
1512129027879.43	-5.79518072289157	1.39759036144578	8.36144578313253	-5.83690987124464	1.03004291845494	8.16186388718578	23.969465648855	38.2595419847328	-13.2977099236641	102.407772939883	26.5688577306986	
1512129027883.33	-5.78313253012048	1.50602409638554	8.33734939759036	-5.82709993868792	1.16738197424893	8.16186388718578	27.1450381679389	40.0	-14.2595419847328	102.407772939883	26.5688577306986	
1512129027887.24	-5.7710843373494	1.79518072289157	8.33734939759036	-5.81729000613121	1.39301042305334	8.29920294297977	29.9541984732824	40.8549618320611	-16.0916030534351	102.401866574393	26.5688577306986	
1512129027891.14	-5.81927710843374	1.49397590361446	8.01204819277108	-5.80748007357449	1.26548129981606	8.02452483139178	34.9923664122137	36.5801526717557	-17.3282442748092	102.401866574393	26.5688577306986	
1512129027895.05	-5.96385542168675	1.39759036144578	7.96385542168675	-5.90557939914163	1.1477621091355	7.92642550582465	41.5419847328244	32.3053435114504	-17.8473282442748	102.401866574393	26.5688577306986	
1512129027898.96	-6.01204819277108	1.46987951807229	8.2289156626506	-6.02329858982219	1.2164316370325	7.9656652360515	46.2748091603053	31.3129770992366	-15.9083969465649	102.404819756754	26.5688577306986	
1512129027902.86	-6.01204819277108	1.62650602409639	8.25301204819277	-6.12139791538933	1.32434089515635	8.07357449417535	45.9847328244275	32.3969465648855	-15.1450381679389	102.404819756754	26.5688577306986	
1512129027906.77	-5.98795180722892	1.8433734939759	8.13253012048193	-6.11158798283262	1.44206008583691	8.02452483139178	48.4732824427481	33.5267175572519	-14.1068702290076	102.404819756754	26.5688577306986	
1512129027910.68	-6.04819277108434	2.04819277108434	7.97590361445783	-6.05272838749234	1.71673819742489	7.9656652360515	52.2900763358779	33.2977099236641	-14.6717557251908	102.401866574393	26.5688577306986	
1512129027914.58	-6.16867469879518	2.21686746987952	7.93975903614458	-6.09196811771919	1.84426732066217	7.86756591048437	56.0610687022901	31.5419847328244	-15.7709923664122	102.401866574393	26.5688577306986	
1512129027918.49	-6.20481927710843	2.2289156626506	7.7710843373494	-6.28816676885346	1.91293684855917	7.63212752912324	56.8091603053435	28.5190839694656	-16.1374045801527	102.401866574393	26.5688577306986	
1512129027922.39	-6.12048192771084	2.20481927710843	7.43373493975904	-6.26854690374004	1.94236664622931	7.3182096873084	56.8702290076336	24.0763358778626	-15.0534351145038	102.395960211975	26.5688577306986	
1512129027926.3	-6.27710843373494	2.25301204819277	7.26506024096386	-6.32740649908032	2.00122624156959	7.13182096873084	57.3282442748092	13.206106870229	-13.3435114503817	102.395960211975	26.5688577306986	
1512129027930.21	-5.90361445783133	1.67469879518072	6.74698795180723	-6.08215818516248	1.61863887185776	6.72961373390558	54.2290076335878	-5.45038167938931	-12.4427480916031	102.395960211975	26.5688577306986	
1512129027934.11	-6.21686746987952	2.31325301204819	7.44578313253012	-6.2391171060699	1.82464745554874	6.94543225015328	54.0763358778626	-10.5954198473282	-16.5343511450382	102.404819756754	26.5688577306986	
1512129027938.02	-6.1566265060241	2.25301204819277	7.49397590361446	-6.27835683629675	2.0110361741263	7.08277130594727	48.0152671755725	-14.2137404580153	-16.6412213740458	102.404819756754	26.5688577306986	
1512129027941.93	-6.03614457831325	2.10843373493976	7.32530120481928	-6.21949724095647	1.92274678111588	7.05334150827713	42.5648854961832	-19.7404580152672	-11.8015267175573	102.404819756754	26.5688577306986	
1512129027945.83	-6.02409638554217	2.30120481927711	7.43373493975904	-6.1704475781729	2.00122624156959	7.08277130594727	40.2290076335878	-25.6335877862595	-7.57251908396947	102.401866574393	26.5688577306986	
1512129027949.74	-5.85542168674699	2.73493975903614	7.55421686746988	-6.01348865726548	2.38381361128142	7.22992029429798	37.6641221374046	-25.8778625954198	-5.66412213740458	102.401866574393	26.5688577306986	
1512129027953.64	-5.83132530120482	2.87951807228916	7.59036144578313	-5.98405885959534	2.48191293684856	7.26916002452483	33.8931297709924	-21.969465648855	-2.88549618320611	102.401866574393	26.5688577306986	
1512129027957.55	-5.79518072289157	3.04819277108434	7.56626506024097	-5.98405885959534	2.69773145309626	7.16125076640098	28.7480916030534	-12.6717557251908	-0.580152671755725	102.3989133928	26.5688577306986	
1512129027961.46	-5.85542168674699	3.08433734939759	7.50602409638554	-5.97424892703863	2.82526057633354	7.18087063151441	23.1603053435115	-4.29007633587786	2.79389312977099	102.3989133928	26.5688577306986	
1512129027965.36	-5.93975903614458	3.03614457831325	7.3855421686747	-6.04291845493562	2.7958307786634	7.06315144083384	17.3282442748092	0.0152671755725191	5.61832061068702	102.3989133928	26.5688577306986	
1512129027969.27	-5.83132530120482	3.16867469879518	7.24096385542169	-5.9546290619252	2.95278969957082	6.94543225015328	11.9236641221374	1.49618320610687	7.3587786259542	102.401866574393	26.5688577306986	
1512129027973.18	-5.95180722891566	2.89156626506024	7.13253012048193	-5.91538933169834	2.84488044144696	6.87676272225628	7.09923664122137	4.01526717557252	8.35114503816794	102.401866574393	26.5688577306986	
1512129027977.08	-6.16867469879518	2.67469879518072	7.21686746987952	-6.09196811771919	2.55058246474555	6.92581238503985	3.64885496183206	2.99236641221374	5.29770992366412	102.401866574393	26.5688577306986	
1512129027980.99	-6.06024096385542	2.46987951807229	7.3855421686747	-6.1704475781729	2.43286327406499	7.02391171060699	-0.320610687022901	1.86259541984733	3.84732824427481	102.3989133928	26.5688577306986	
1512129027984.89	-5.92771084337349	2.33734939759036	7.50602409638554	-6.11158798283262	2.16799509503372	7.2495401594114	-2.3969465648855	2.29007633587786	5.55725190839695	102.3989133928	26.5688577306986	
1512129027988.8	-5.87951807228916	2.20481927710843	7.55421686746988	-6.02329858982219	2.06989576946658	7.3182096873084	-2.99236641221374	4.06106870229008	7.6030534351145	102.3989133928	26.5688577306986	
1512129027992.71	-5.89156626506024	2.09638554216867	7.53012048192771	-5.9546290619252	1.98160637645616	7.32801961986511	-3.12977099236641	4.87022900763359	8.27480916030534	102.401866574393	26.5688577306986	
1512129027996.61	-5.92771084337349	2.03614457831325	7.50602409638554	-5.99386879215205	1.82464745554874	7.30839975475169	-3.19083969465649	3.75572519083969	8.18320610687023	102.401866574393	26.5688577306986	
1512129028000.52	-5.96385542168675	2.0	7.5421686746988	-6.02329858982219	1.77559779276517	7.33782955242183	-3.77099236641221	1.3587786259542	7.78625954198473	102.401866574393	26.5688577306986	
1512129028004.43	-5.93975903614458	2.01204819277108	7.6144578313253	-6.02329858982219	1.75597792765175	7.33782955242183	-5.05343511450382	-1.52671755725191	7.48091603053435	102.407772939883	26.5688577306986	
1512129028008.33	-5.91566265060241	1.97590361445783	7.67469879518072	-5.99386879215205	1.71673819742489	7.49478847332925	-5.93893129770992	-3.81679389312977	7.2824427480916	102.407772939883	26.5688577306986	
1512129028012.24	-5.91566265060241	1.96385542168675	7.75903614457831	-5.96443899448191	1.71673819742489	7.54383813611281	-6.3206106870229	-5.06870229007634	7.06870229007634	102.407772939883	26.5688577306986	
1512129028016.14	-5.95180722891566	1.92771084337349	7.8433734939759	-6.02329858982219	1.71673819742489	7.62231759656652	-6.38167938931298	-4.99236641221374	6.91603053435115	102.407772939883	26.5688577306986	
1512129028020.05	-5.93975903614458	1.91566265060241	7.91566265060241	-6.05272838749234	1.68730839975475	7.69098712446352	-6.01526717557252	-3.78625954198473	6.59541984732824	102.407772939883	26.5688577306986	
1512129028023.96	-6.14457831325301	1.78313253012048	7.95180722891566	-6.08215818516248	1.59901900674433	7.72041692213366	-5.31297709923664	-2.65648854961832	5.86259541984733	102.407772939883	26.5688577306986	
1512129028027.86	-6.57831325301205	1.57831325301205	7.97590361445783	-6.34702636419375	1.34396076026977	7.72041692213366	-3.98473282442748	-4.83969465648855	2.53435114503817	102.401866574393	26.5688577306986	
1512129028031.77	-5.86746987951807	1.89156626506024	7.97590361445783	-6.12139791538933	1.5793991416309	7.80870631514408	-1.48091603053435	-16.1068702290076	-4.53435114503817	102.401866574393	26.5688577306986	
1512129028035.68	-5.56626506024096	1.83132530120482	7.85542168674699	-5.79767014101778	1.55977927651747	7.71060698957695	-0.0610687022900763	-16.5190839694656	-2.93129770992366	102.401866574393	26.5688577306986	
1512129028039.58	-5.79518072289157	1.96385542168675	7.78313253012048	-5.78786020846107	1.60882893930104	7.68117719190681	0.916030534351145	-16.0	-1.69465648854962	102.401866574393	26.5688577306986	
1512129028043.49	-5.92771084337349	1.95180722891566	7.81927710843374	-5.8859595340282	1.6480686695279	7.63212752912324	2.76335877862595	-14.7480916030534	-3.2824427480916	102.401866574393	26.5688577306986	
1512129028047.39	-6.07228915662651	1.93975903614458	7.87951807228916	-5.98405885959534	1.67749846719804	7.69098712446352	3.57251908396947	-14.5496183206107	-4.85496183206107	102.401866574393	26.5688577306986	
1512129028051.3	-6.09638554216868	1.93975903614458	7.90361445783133	-6.13120784794605	1.75597792765175	7.71060698957695	4.42748091603053	-15.3129770992366	-6.67175572519084	102.401866574393	26.5688577306986	
1512129028055.21	-6.04819277108434	1.93975903614458	7.93975903614458	-6.16063764561619	1.74616799509503	7.77927651747394	5.51145038167939	-16.6717557251908	-7.70992366412214	102.401866574393	26.5688577306986	
1512129028059.11	-6.0	1.90361445783133	7.89156626506024	-6.11158798283262	1.70692826486818	7.76946658491723	6.50381679389313	-18.3664122137405	-8.3206106870229	102.401866574393	26.5688577306986	
1512129028063.02	-5.89156626506024	1.85542168674699	7.86746987951807	-5.9546290619252	1.61863887185776	7.72041692213366	8.3969465648855	-19.969465648855	-9.26717557251908	102.395960211975	26.5688577306986	
1512129028066.93	-5.92771084337349	1.78313253012048	7.85542168674699	-5.93500919681177	1.56958920907419	7.73022685469037	11.0687022900763	-21.4045801526718	-10.7175572519084	102.395960211975	26.5688577306986	
1512129028070.83	-5.91566265060241	1.75903614457831	7.86746987951807	-5.9546290619252	1.49110974862048	7.75965665236051	13.587786259542	-23.8778625954198	-13.0229007633588	102.395960211975	26.5688577306986	
1512129028074.74	-5.87951807228916	1.65060240963855	7.80722891566265	-5.87614960147149	1.37339055793991	7.66155732679338	15.8625954198473	-28.5954198473282	-13.8625954198473	102.401866574393	26.5688577306986	
1512129028078.64	-5.86746987951807	1.56626506024096	7.75903614457831	-5.8859595340282	1.35377069282649	7.64193746167995	18.3969465648855	-35.6946564885496	-15.7404580152672	102.401866574393	26.5688577306986	
1512129028082.55	-5.80722891566265	1.57831325301205	7.80722891566265	-5.81729000613121	1.34396076026977	7.64193746167995	20.3206106870229	-43.0992366412214	-19.1145038167939	102.401866574393	26.5688577306986	
1512129028086.46	-5.73493975903615	1.65060240963855	7.89156626506024	-5.78786020846107	1.38320049049663	7.66155732679338	21.8015267175573	-47.3282442748092	-21.1603053435114	102.395960211975	26.5688577306986	
1512129028090.36	-5.66265060240964	1.63855421686747	7.92771084337349	-5.69957081545064	1.40282035561006	7.69098712446352	21.9847328244275	-49.8473282442748	-22.4885496183206	102.395960211975	26.5688577306986	
1512129028094.27	-5.62650602409639	1.74698795180723	8.01204819277108	-5.70938074800736	1.4322501532802	7.7498467198038	22.4885496183206	-50.0916030534351	-23.5572519083969	102.395960211975	26.5688577306986	
1512129028098.18	-5.66265060240964	1.69879518072289	8.06024096385542	-5.70938074800736	1.48129981606376	7.8185162477008	22.2748091603053	-49.4045801526718	-24.0458015267176	102.395960211975	26.5688577306986	
1512129028102.08	-5.62650602409639	1.74698795180723	8.10843373493976	-5.68976088289393	1.49110974862048	7.88718577559779	21.6488549618321	-48.0763358778626	-24.1374045801527	102.395960211975	26.5688577306986	
1512129028105.99	-5.59036144578313	1.73493975903614	8.14457831325301	-5.67995095033722	1.48129981606376	7.91661557326793	21.2977099236641	-46.4885496183206	-25.0687022900763	102.395960211975	26.5688577306986	
1512129028109.89	-5.57831325301205	1.7710843373494	8.13253012048193	-5.63090128755365	1.48129981606376	7.90680564071122	20.4274809160305	-45.3587786259542	-26.0458015267176	102.401866574393	26.5688577306986	
1512129028113.8	-5.51807228915663	1.79518072289157	8.12048192771084	-5.62109135499693	1.54015941140405	7.85775597792765	19.6793893129771	-44.8702290076336	-27.4961832061069	102.401866574393	26.5688577306986	
1512129028117.71	-5.46987951807229	1.83132530120482	8.08433734939759	-5.60147148988351	1.54996934396076	7.85775597792765	19.3435114503817	-44.2595419847328	-28.1832061068702	102.401866574393	26.5688577306986	
1512129028121.61	-5.5421686746988	1.95180722891566	8.10843373493976	-5.62109135499693	1.6480686695279	7.87737584304108	18.5648854961832	-44.6717557251908	-27.9541984732824	102.401866574393	26.5688577306986	
1512129028125.52	-5.46987951807229	2.12048192771084	8.07228915662651	-5.61128142244022	1.78540772532189	7.87737584304108	17.7404580152672	-44.4732824427481	-28.7480916030534	102.401866574393	26.5688577306986	
1512129028129.43	-5.46987951807229	2.31325301204819	8.06024096385542	-5.53280196198651	2.00122624156959	7.84794604537094	15.4809160305344	-44.6870229007634	-28.7480916030534	102.401866574393	26.5688577306986	
1512129028133.33	-5.45783132530121	2.34939759036145	8.01204819277108	-5.51318209687308	2.05027590435316	7.86756591048437	12.0763358778626	-43.5114503816794	-29.9389312977099	102.3989133928	26.5688577306986	
1512129028137.24	-4.96385542168675	1.60240963855422	7.81927710843374	-5.41508277130595	1.71673819742489	7.62231759656652	8.18320610687023	-42.1832061068702	-29.7709923664122	102.3989133928	26.5688577306986	
1512129028141.14	-4.14457831325301	0.746987951807229	7.42168674698795	-5.01287553648069	0.735744941753525	7.13182096873084	1.38931297709924	-40.1374045801527	-23.5267175572519	102.3989133928	26.5688577306986	
1512129028145.05	-4.51807228915663	1.45783132530121	7.53012048192771	-4.92458614347026	0.922133660331085	7.12201103617413	-8.0	-46.8091603053435	-3.22137404580153	102.407772939883	26.5688577306986	
1512129028148.96	-5.20481927710843	1.98795180722892	8.09638554216868	-5.08154506437768	1.56958920907419	7.65174739423666	-10.9923664122137	-59.7099236641221	10.7786259541985	102.407772939883	26.5688577306986	
1512129028152.86	-5.66265060240964	2.44578313253012	8.48192771084337	-5.29736358062538	1.83445738810546	7.91661557326793	-12.2442748091603	-67.2977099236641	8.10687022900763	102.407772939883	26.5688577306986	
1512129028156.77	-5.83132530120482	2.80722891566265	8.50602409638554	-5.63090128755365	2.39362354383814	8.09319435928878	-16.6412213740458	-62.3664122137405	1.87786259541985	102.401866574393	26.5688577306986	
1512129028160.68	-6.0	2.87951807228916	8.37349397590362	-5.94481912936849	2.6584917228694	8.12262415695892	-22.0152671755725	-48.6412213740458	-2.0763358778626	102.401866574393	26.5688577306986	
1512129028164.58	-6.19277108433735	2.86746987951807	8.25301204819277	-6.05272838749234	2.64868179031269	8.07357449417535	-26.5801526717557	-34.0	-3.00763358778626	102.401866574393	26.5688577306986	
1512129028168.49	-6.14457831325301	2.86746987951807	8.18072289156627	-6.09196811771919	2.67811158798283	7.91661557326793	-30.2137404580153	-23.0839694656489	-5.52671755725191	102.401866574393	26.5688577306986	
1512129028172.39	-5.98795180722892	2.81927710843373	8.14457831325301	-6.06253832004905	2.61925199264255	7.91661557326793	-33.0687022900763	-17.8167938931298	-9.84732824427481	102.401866574393	26.5688577306986	
1512129028176.3	-5.73493975903615	2.80722891566265	8.20481927710843	-5.82709993868792	2.58982219497241	7.93623543838136	-35.8320610687023	-15.4198473282443	-13.9389312977099	102.401866574393	26.5688577306986	
1512129028180.21	-5.57831325301205	2.79518072289157	8.31325301204819	-5.71919068056407	2.5800122624157	7.92642550582465	-39.3587786259542	-14.3053435114504	-17.3129770992366	102.404819756754	26.5688577306986	
1512129028184.11	-5.3855421686747	2.67469879518072	8.3855421686747	-5.47394236664623	2.52115266707541	8.07357449417535	-42.824427480916	-12.412213740458	-20.5954198473282	102.404819756754	26.5688577306986	
1512129028188.02	-5.33734939759036	2.50602409638554	8.3855421686747	-5.41508277130595	2.30533415082771	8.19129368485592	-47.8473282442748	-6.01526717557252	-23.236641221374	102.404819756754	26.5688577306986	
1512129028191.93	-5.34939759036145	2.27710843373494	8.34939759036145	-5.4543225015328	2.17780502759043	8.17167381974249	-47.9847328244275	-2.0763358778626	-22.8396946564885	102.401866574393	26.5688577306986	
1512129028195.83	-5.3855421686747	2.07228915662651	8.30120481927711	-5.5229920294298	1.91293684855917	8.1814837522992	-47.2519083969466	1.32824427480916	-22.0	102.401866574393	26.5688577306986	
1512129028199.74	-5.44578313253012	1.96385542168675	8.30120481927711	-5.54261189454322	1.82464745554874	8.16186388718578	-46.3053435114504	4.03053435114504	-20.4732824427481	102.401866574393	26.5688577306986	
1512129028203.64	-5.51807228915663	1.92771084337349	8.28915662650602	-5.56223175965665	1.6480686695279	8.1814837522992	-45.2213740458015	6.48854961832061	-19.7557251908397	102.401866574393	26.5688577306986	
1512129028207.55	-5.57831325301205	1.96385542168675	8.28915662650602	-5.62109135499693	1.68730839975475	8.15205395462906	-43.7862595419847	9.38931297709924	-19.5267175572519	102.401866574393	26.5688577306986	
1512129028211.46	-5.60240963855422	2.02409638554217	8.32530120481928	-5.63090128755365	1.75597792765175	8.1814837522992	-43.175572519084	15.3893129770992	-18.2748091603053	102.401866574393	26.5688577306986	
1512129028215.36	-5.73493975903615	2.07228915662651	8.32530120481928	-5.77805027590435	1.73635806253832	8.19129368485592	-44.1221374045802	22.8091603053435	-16.8091603053435	102.404819756754	26.5688577306986	
1512129028219.27	-5.75903614457831	2.03614457831325	8.27710843373494	-5.79767014101778	1.76578786020846	8.17167381974249	-45.3740458015267	29.5725190839695	-16.2595419847328	102.404819756754	26.5688577306986	
1512129028223.18	-5.7710843373494	1.93975903614458	8.25301204819277	-5.81729000613121	1.73635806253832	8.10300429184549	-45.0992366412214	35.5419847328244	-15.2824427480916	102.404819756754	26.5688577306986	
1512129028227.08	-5.83132530120482	1.92771084337349	8.27710843373494	-5.87614960147149	1.70692826486818	8.10300429184549	-43.9389312977099	38.4885496183206	-13.6641221374046	102.413679308444	26.5688577306986	
1512129028230.99	-5.73493975903615	1.90361445783133	8.25301204819277	-5.89576946658492	1.67749846719804	8.12262415695892	-41.206106870229	39.3435114503817	-11.3129770992366	102.413679308444	26.5688577306986	
1512129028234.89	-5.60240963855422	1.87951807228916	8.27710843373494	-5.78786020846107	1.65787860208461	8.21091354996934	-37.8931297709924	40.9160305343511	-8.24427480916031	102.413679308444	26.5688577306986	
1512129028238.8	-5.40963855421687	1.87951807228916	8.36144578313253	-5.69957081545064	1.63825873697118	8.24034334763948	-34.9618320610687	45.3435114503817	-4.77862595419847	102.407772939883	26.5688577306986	
1512129028242.71	-5.69879518072289	1.79518072289157	8.42168674698795	-5.72900061312078	1.56958920907419	8.27958307786634	-32.4885496183206	51.3740458015267	-2.82442748091603	102.407772939883	26.5688577306986	
1512129028246.61	-5.79518072289157	1.69879518072289	8.42168674698795	-5.74862047823421	1.48129981606376	8.28939301042305	-29.0687022900763	52.8702290076336	-4.22900763358779	102.407772939883	26.5688577306986	
1512129028250.52	-5.81927710843374	1.55421686746988	8.44578313253012	-5.86633966891478	1.39301042305334	8.31882280809319	-25.8931297709924	49.6488549618321	-3.84732824427481	102.407772939883	26.5688577306986	
1512129028254.43	-5.75903614457831	1.39759036144578	8.45783132530121	-5.89576946658492	1.17719190680564	8.31882280809319	-21.3435114503817	45.4351145038168	-2.13740458015267	102.407772939883	26.5688577306986	
1512129028258.33	-5.75903614457831	1.26506024096386	8.51807228915663	-5.87614960147149	1.04966278356836	8.38749233599019	-15.8778625954198	43.0839694656489	-0.183206106870229	102.407772939883	26.5688577306986	
1512129028262.24	-5.74698795180723	1.20481927710843	8.56626506024096	-5.89576946658492	0.96137339055794	8.4659717964439	-9.12977099236641	42.6870229007634	1.00763358778626	102.401866574393	26.5688577306986	
1512129028266.14	-5.69879518072289	1.12048192771084	8.6144578313253	-5.89576946658492	0.873083997547517	8.49540159411404	-2.03053435114504	42.4885496183206	2.44274809160305	102.401866574393	26.5688577306986	
1512129028270.05	-5.67469879518072	1.06024096385542	8.67469879518072	-5.87614960147149	0.745554874310239	8.57388105456775	5.17557251908397	41.8167938931298	4.45801526717557	102.401866574393	26.5688577306986	
1512129028273.96	-5.69879518072289	1.0	8.71084337349398	-5.80748007357449	0.706315144083384	8.58369098712446	11.206106870229	41.3435114503817	6.77862595419847	102.404819756754	26.5688577306986	
1512129028277.86	-5.69879518072289	1.01204819277108	8.71084337349398	-5.83690987124464	0.696505211526671	8.57388105456775	16.3969465648855	40.5190839694656	8.68702290076336	102.404819756754	26.5688577306986	
1512129028281.77	-5.68674698795181	1.10843373493976	8.66265060240964	-5.83690987124464	0.77498467198038	8.54445125689761	20.6870229007634	39.5725190839695	10.381679389313	102.404819756754	26.5688577306986	
1512129028285.68	-5.6144578313253	1.19277108433735	8.59036144578313	-5.78786020846107	0.843654199877376	8.51502145922747	24.5496183206107	38.7480916030534	11.4961832061069	102.401866574393	26.5688577306986	
1512129028289.58	-5.55421686746988	1.24096385542169	8.51807228915663	-5.6701410177805	0.912323727774372	8.37768240343348	27.4198473282443	37.7251908396947	12.7175572519084	102.401866574393	26.5688577306986	
1512129028293.49	-5.50602409638554	1.2289156626506	8.44578313253012	-5.61128142244022	0.912323727774372	8.25996321275291	30.0610687022901	35.9083969465649	13.4809160305344	102.401866574393	26.5688577306986	
1512129028297.39	-5.48192771084337	1.21686746987952	8.43373493975904	-5.59166155732679	0.912323727774372	8.22072348252606	32.3206106870229	34.442748091603	13.8931297709924	102.395960211975	26.5688577306986	
1512129028301.3	-5.45783132530121	1.20481927710843	8.43373493975904	-5.57204169221337	0.902513795217658	8.15205395462906	34.0763358778626	32.793893129771	14.7328244274809	102.395960211975	26.5688577306986	
1512129028305.21	-5.49397590361446	1.19277108433735	8.33734939759036	-5.57204169221337	0.912323727774372	8.21091354996934	35.2519083969466	30.6870229007634	15.7709923664122	102.395960211975	26.5688577306986	
1512129028309.11	-5.5421686746988	1.24096385542169	8.26506024096386	-5.53280196198651	0.902513795217658	8.07357449417535	35.9541984732824	27.5267175572519	16.6870229007634	102.395960211975	26.5688577306986	
1512129028313.02	-5.63855421686747	1.36144578313253	8.20481927710843	-5.64071122011036	0.96137339055794	8.05395462906193	35.7251908396947	23.2824427480916	17.4503816793893	102.395960211975	26.5688577306986	
1512129028316.93	-5.67469879518072	1.39759036144578	8.1566265060241	-5.69957081545064	1.0790925812385	7.92642550582465	34.5801526717557	18.1984732824427	17.7709923664122	102.395960211975	26.5688577306986	
1512129028320.83	-5.67469879518072	1.49397590361446	8.1566265060241	-5.75843041079093	1.18700183936235	7.88718577559779	33.3740458015267	13.1145038167939	17.6793893129771	102.401866574393	26.5688577306986	
1512129028324.74	-5.66265060240964	1.53012048192771	8.20481927710843	-5.75843041079093	1.23605150214592	7.93623543838136	32.7328244274809	8.74809160305344	17.4656488549618	102.401866574393	26.5688577306986	
1512129028328.64	-5.73493975903615	1.68674698795181	8.30120481927711	-5.74862047823421	1.35377069282649	8.01471489883507	32.6106870229008	6.13740458015267	16.7786259541985	102.401866574393	26.5688577306986	
1512129028332.55	-5.5421686746988	1.48192771084337	8.1566265060241	-5.69957081545064	1.31453096259963	8.02452483139178	33.1603053435114	5.2824427480916	16.9160305343511	102.407772939883	26.5688577306986	
1512129028336.46	-5.53012048192771	1.43373493975904	7.97590361445783	-5.61128142244022	1.20662170447578	7.79889638258737	34.1832061068702	1.9236641221374	18.824427480916	102.407772939883	26.5688577306986	
1512129028340.36	-5.45783132530121	1.53012048192771	7.89156626506024	-5.57204169221337	1.25567136725935	7.7498467198038	35.1145038167939	-0.793893129770992	20.1221374045801	102.407772939883	26.5688577306986	
1512129028344.27	-5.32530120481928	1.60240963855422	7.79518072289157	-5.48375229920294	1.2949110974862	7.71060698957695	35.7251908396947	-1.55725190839695	21.3740458015267	102.401866574393	26.5688577306986	
1512129028348.18	-5.16867469879518	1.6144578313253	7.65060240963855	-5.28755364806867	1.32434089515635	7.51440833844267	35.7862595419847	0.473282442748092	22.6412213740458	102.401866574393	26.5688577306986	
1512129028352.08	-5.10843373493976	1.68674698795181	7.55421686746988	-5.2385039852851	1.35377069282649	7.45554874310239	35.0992366412214	3.98473282442748	23.8167938931298	102.401866574393	26.5688577306986	
1512129028355.99	-5.04819277108434	1.75903614457831	7.45783132530121	-5.16983445738811	1.45187001839362	7.28877988963826	34.3511450381679	8.16793893129771	24.9770992366412	102.401866574393	26.5688577306986	
1512129028359.89	-5.06024096385542	1.8433734939759	7.42168674698795	-5.14040465971796	1.52053954629062	7.22992029429798	33.8625954198473	12.8091603053435	26.0763358778626	102.401866574393	26.5688577306986	
1512129028363.8	-5.16867469879518	1.85542168674699	7.43373493975904	-5.17964438994482	1.51072961373391	7.22011036174126	33.9083969465649	16.7328244274809	27.4198473282443	102.401866574393	26.5688577306986	
1512129028367.71	-5.26506024096386	1.8433734939759	7.45783132530121	-5.31698344573881	1.60882893930104	7.23973022685469	35.206106870229	19.8320610687023	28.7175572519084	102.423427377771	26.6446867923036	
1512129028371.61	-5.24096385542169	1.81927710843374	7.49397590361446	-5.34641324340895	1.54996934396076	7.34763948497854	37.3740458015267	24.0916030534351	30.2290076335878	102.423427377771	26.6446867923036	
1512129028375.52	-5.18072289156627	1.85542168674699	7.53012048192771	-5.3071735131821	1.58920907418761	7.36725935009197	40.2442748091603	29.7251908396947	32.3664122137405	102.423427377771	26.6446867923036	
1512129028379.43	-5.08433734939759	1.95180722891566	7.50602409638554	-5.28755364806867	1.60882893930104	7.35744941753525	42.9770992366412	36.7786259541985	33.969465648855	102.417520062926	26.6446867923036	
1512129028383.33	-5.08433734939759	1.93975903614458	7.42168674698795	-5.15021459227468	1.67749846719804	7.32801961986511	44.030534351145	45.0839694656489	34.7480916030534	102.417520062926	26.6446867923036	
1512129028387.24	-5.0	1.89156626506024	7.33734939759036	-5.07173513182097	1.65787860208461	7.19068056407112	44.0	52.0458015267176	35.2977099236641	102.417520062926	26.6446867923036	
1512129028391.14	-4.65060240963855	2.01204819277108	7.39759036144578	-4.99325567136726	1.68730839975475	7.11220110361741	42.9465648854962	57.6488549618321	35.2671755725191	102.417520062926	26.6446867923036	
1512129028395.05	0.409638554216868	4.60240963855422	9.5421686746988	-1.42244022072348	3.41385652973636	8.51502145922747	40.6106870229008	66.6564885496183	35.5267175572519	102.417520062926	26.6446867923036	
1512129028398.96	-1.40963855421687	2.42168674698795	9.74698795180723	-0.706315144083384	3.05088902513795	9.23114653586757	20.4580152671756	120.519083969466	32.7480916030534	102.417520062926	26.6446867923036	
1512129028402.86	-3.78313253012048	1.40963855421687	8.33734939759036	-2.7271612507664	1.6480686695279	8.66217044757817	17.1297709923664	155.541984732824	16.2290076335878	102.417520062926	26.6446867923036	
1512129028406.77	-5.67469879518072	1.20481927710843	7.14457831325301	-5.34641324340895	1.13795217657879	7.28877988963826	19.587786259542	172.564885496183	23.0381679389313	102.417520062926	26.6446867923036	
1512129028410.68	-6.80722891566265	1.36144578313253	6.13253012048193	-6.30778663396689	1.09871244635193	6.52360515021459	21.1297709923664	163.862595419847	37.4656488549618	102.417520062926	26.6446867923036	
1512129028414.58	-7.01204819277108	1.67469879518072	5.59036144578313	-7.07296137339056	1.32434089515635	5.54261189454322	23.0992366412214	139.282442748092	48.8854961832061	102.414566406655	26.6446867923036	
1512129028418.49	-6.63855421686747	2.01204819277108	5.68674698795181	-7.00429184549356	1.50091968117719	5.40527283874923	24.2595419847328	105.664122137405	55.969465648855	102.414566406655	26.6446867923036	
1512129028422.39	-6.03614457831325	2.33734939759036	6.20481927710843	-6.39607602697731	1.90312691600245	5.66033108522379	24.1984732824427	72.8702290076336	58.5343511450382	102.414566406655	26.6446867923036	
1512129028426.3	-5.59036144578313	2.40963855421687	6.92771084337349	-5.74862047823421	2.11894543225015	6.43531575720417	23.0534351145038	49.206106870229	57.3893129770992	102.417520062926	26.6446867923036	
1512129028430.21	-5.27710843373494	2.49397590361446	7.34939759036145	-5.5229920294298	2.18761496014715	6.77866339668915	21.4351145038168	34.9160305343511	55.9236641221374	102.417520062926	26.6446867923036	
1512129028434.11	-4.90361445783133	2.73493975903614	7.40963855421687	-5.07173513182097	2.43286327406499	7.09258123850398	19.2671755725191	34.2290076335878	56.7022900763359	102.417520062926	26.6446867923036	
1512129028438.02	-5.02409638554217	3.06024096385542	7.40963855421687	-4.97363580625383	2.55058246474555	7.17106069895769	16.1526717557252	45.0534351145038	54.3053435114504	102.423427377771	26.6446867923036	
1512129028441.93	-5.33734939759036	4.66265060240964	7.87951807228916	-4.95401594114041	3.86511342734519	7.74003678724709	16.5038167938931	50.3358778625954	45.9847328244275	102.423427377771	26.6446867923036	
1512129028445.83	-5.27710843373494	3.26506024096386	7.3855421686747	-4.89515634580012	3.61986511342735	7.56345800122624	35.5725190839695	37.2213740458015	28.1526717557252	102.423427377771	26.6446867923036	
1512129028449.74	-5.36144578313253	2.1566265060241	7.21686746987952	-5.15021459227468	2.50153280196199	7.23973022685469	43.175572519084	30.8854961832061	9.81679389312977	102.420473719964	26.6446867923036	
1512129028453.64	-5.44578313253012	1.8433734939759	7.03614457831325	-5.46413243408952	1.87369711833231	6.96505211526671	51.4045801526718	28.4274809160305	4.85496183206107	102.420473719964	26.6446867923036	
1512129028457.55	-5.42168674698795	2.21686746987952	6.75903614457831	-5.59166155732679	1.90312691600245	6.66094420600858	55.5114503816794	26.6106870229008	8.3206106870229	102.420473719964	26.6446867923036	
1512129028461.46	-6.0	2.62650602409639	6.63855421686747	-5.97424892703863	2.226854690374	6.41569589209074	52.1221374045802	26.0	14.9007633587786	102.423427377771	26.6446867923036	
1512129028465.36	-5.93975903614458	2.5421686746988	6.49397590361446	-6.05272838749234	2.295524218271	6.33721643163703	47.6030534351145	24.9923664122137	19.5572519083969	102.423427377771	26.6446867923036	
1512129028469.27	-6.46987951807229	2.21686746987952	6.28915662650602	-6.47455548743102	2.09932556713673	6.07234825260576	43.7862595419847	21.3893129770992	25.5725190839695	102.423427377771	26.6446867923036	
1512129028473.18	-6.48192771084337	2.01204819277108	6.2289156626506	-6.70018393623544	1.82464745554874	5.94481912936849	43.8931297709924	8.35114503816794	33.0839694656489	102.417520062926	26.6446867923036	
1512129028477.08	-6.57831325301205	1.97590361445783	6.20481927710843	-6.77866339668915	1.75597792765175	5.98405885959534	44.0916030534351	-0.656488549618321	43.4503816793893	102.417520062926	26.6446867923036	
1512129028480.99	-6.75903614457831	2.13253012048193	6.19277108433735	-6.93562231759657	1.8638871857756	5.9546290619252	43.5725190839695	-7.38931297709924	50.1679389312977	102.417520062926	26.6446867923036	
1512129028484.89	-6.48192771084337	2.28915662650602	6.43373493975904	-6.90619251992643	1.94236664622931	6.05272838749234	44.030534351145	-19.1450381679389	54.9923664122137	102.414566406655	26.6446867923036	
1512129028488.8	-5.67469879518072	2.60240963855422	6.92771084337349	-6.15082771305947	2.21704475781729	6.49417535254445	45.3587786259542	-30.1068702290076	59.4198473282443	102.414566406655	26.6446867923036	
1512129028492.71	-5.08433734939759	2.79518072289157	7.19277108433735	-5.32679337829552	2.46229307173513	6.74923359901901	43.587786259542	-31.7404580152672	60.4274809160305	102.414566406655	26.6446867923036	
1512129028496.61	-4.92771084337349	2.40963855421687	7.3855421686747	-5.10116492949111	2.32495401594114	6.886572654813	39.6641221374046	-28.2595419847328	57.0381679389313	102.417520062926	26.6446867923036	
1512129028500.52	-4.25301204819277	2.40963855421687	6.69879518072289	-4.44389944819129	2.23666462293072	6.39607602697731	27.3893129770992	-30.0610687022901	42.3358778625954	102.417520062926	26.6446867923036	
1512129028504.43	-4.19277108433735	2.39759036144578	6.55421686746988	-4.23789086450031	2.11894543225015	6.21949724095647	17.5419847328244	-36.3511450381679	36.0152671755725	102.417520062926	26.6446867923036	
1512129028508.33	-4.32530120481928	3.0	6.62650602409639	-4.34580012262416	2.53096259963213	6.21949724095647	10.0458015267176	-38.9618320610687	32.3664122137405	102.420473719964	26.6446867923036	
1512129028512.24	-4.39759036144578	3.16867469879518	6.73493975903615	-4.34580012262416	2.78602084610668	6.58246474555487	5.70992366412214	-38.8702290076336	31.6793893129771	102.420473719964	26.6446867923036	
1512129028516.14	-4.46987951807229	3.02409638554217	7.07228915662651	-4.48313917841815	2.81545064377682	6.71980380134887	4.33587786259542	-40.1068702290076	29.7251908396947	102.420473719964	26.6446867923036	
1512129028520.05	-4.5421686746988	2.90361445783133	7.2289156626506	-4.62047823421214	2.73697118332311	7.01410177805028	10.0	-38.2137404580153	30.5496183206107	102.420473719964	26.6446867923036	
1512129028523.96	-4.65060240963855	2.93975903614458	7.36144578313253	-4.65971796443899	2.66830165542612	7.11220110361741	16.1679389312977	-33.4809160305344	33.2671755725191	102.420473719964	26.6446867923036	
1512129028527.86	-4.79518072289157	3.03614457831325	7.49397590361446	-4.78724708767627	2.73697118332311	7.30839975475169	22.7022900763359	-30.9770992366412	35.6335877862595	102.420473719964	26.6446867923036	
1512129028531.77	-5.0	3.27710843373494	7.55421686746988	-4.90496627835684	2.89393010423053	7.37706928264868	30.3511450381679	-33.4961832061069	37.0687022900763	102.417520062926	26.6446867923036	
1512129028535.68	-5.51807228915663	4.10843373493976	7.59036144578313	-5.26793378295524	3.42366646229307	7.46535867565911	37.0229007633588	-39.3435114503817	36.824427480916	102.417520062926	26.6446867923036	
1512129028539.58	-6.24096385542169	5.0	7.67469879518072	-5.8859595340282	4.48313917841815	7.5340282035561	43.4656488549618	-47.0381679389313	36.2137404580153	102.417520062926	26.6446867923036	
1512129028543.49	-6.32530120481928	4.56626506024096	8.14457831325301	-6.02329858982219	4.49294911097486	7.83813611281422	50.3206106870229	-58.763358778626	31.5572519083969	102.414566406655	26.6446867923036	
1512129028547.39	-5.02409638554217	0.445783132530121	8.34939759036145	-4.26732066217045	1.02023298589822	7.5340282035561	58.6412213740458	-68.763358778626	22.9312977099237	102.414566406655	26.6446867923036	
1512129028551.3	-3.44578313253012	0.325301204819277	7.65060240963855	-3.54138565297364	0.333537706928265	7.20049049662784	57.0229007633588	-87.0687022900763	-0.259541984732824	102.414566406655	26.6446867923036	
1512129028555.21	-2.49397590361446	1.49397590361446	7.63855421686747	-2.75659104843654	0.931943592887799	7.43592887798896	20.9465648854962	-126.885496183206	-50.1068702290076	102.417520062926	26.6446867923036	
1512129028559.11	-1.09638554216867	-0.987951807228916	7.45783132530121	-2.20723482526058	-1.19681177191907	6.86695278969957	24.1984732824427	-111.557251908397	-55.2213740458015	102.417520062926	26.6446867923036	
1512129028563.02	-0.686746987951807	-3.10843373493976	6.92771084337349	-2.34457388105457	-2.41324340895156	6.51379521765788	20.2595419847328	-103.022900763359	-38.8396946564885	102.417520062926	26.6446867923036	
1512129028566.93	-1.07228915662651	-1.96385542168675	6.92771084337349	-2.75659104843654	-2.4426732066217	6.41569589209074	-4.58015267175573	-126.763358778626	29.3893129770992	102.417520062926	26.6446867923036	
1512129028570.83	-1.37349397590361	1.08433734939759	7.09638554216868	-2.7271612507664	-1.15757204169221	6.57265481299816	-16.2442748091603	-142.045801526718	100.335877862595	102.417520062926	26.6446867923036	
1512129028574.74	-2.27710843373494	2.74698795180723	7.43373493975904	-2.73697118332311	1.45187001839362	7.21030042918455	-17.8778625954198	-143.709923664122	158.900763358779	102.417520062926	26.6446867923036	
1512129028578.64	-3.44578313253012	3.49397590361446	7.49397590361446	-3.03126916002452	2.18761496014715	7.25935009196812	-5.05343511450382	-137.740458015267	185.068702290076	102.411612751153	26.6446867923036	
1512129028582.55	-4.2289156626506	4.10843373493976	7.39759036144578	-3.96321275291232	3.35499693439608	7.20049049662784	8.61068702290076	-126.595419847328	194.717557251908	102.411612751153	26.6446867923036	
1512129028586.46	-4.66265060240964	4.73493975903615	7.39759036144578	-4.60085836909871	4.24770079705702	7.08277130594727	10.2442748091603	-117.206106870229	200.625954198473	102.411612751153	26.6446867923036	
1512129028590.36	-4.68674698795181	5.09638554216868	7.55421686746988	-4.7381974248927	4.50275904353158	7.17106069895769	5.81679389312977	-111.908396946565	206.381679389313	102.417520062926	26.6446867923036	
1512129028594.27	-4.6144578313253	5.27710843373494	7.56626506024097	-4.75781729000613	4.92458614347026	7.32801961986511	3.40458015267176	-108.427480916031	212.18320610687	102.417520062926	26.6446867923036	
1512129028598.18	-4.34939759036145	5.28915662650602	7.57831325301205	-4.63028816676885	4.97363580625383	7.36725935009197	4.06106870229008	-104.12213740458	216.931297709924	102.417520062926	26.6446867923036	
1512129028602.08	-4.02409638554217	5.28915662650602	7.43373493975904	-4.27713059472716	5.04230533415083	7.33782955242183	7.02290076335878	-97.618320610687	218.534351145038	102.423427377771	26.6446867923036	
1512129028605.99	-3.33734939759036	5.08433734939759	7.31325301204819	-3.56100551808706	4.94420600858369	7.2495401594114	12.0	-87.1450381679389	218.06106870229	102.423427377771	26.6446867923036	
1512129028609.89	-2.81927710843373	5.13253012048193	7.02409638554217	-3.19803801348866	4.94420600858369	7.09258123850398	17.3587786259542	-71.236641221374	217.282442748092	102.423427377771	26.6446867923036	
1512129028613.8	-3.0	5.10843373493976	6.65060240963855	-3.06069895769467	4.91477621091355	6.70018393623544	19.2977099236641	-49.5267175572519	215.786259541985	102.414566406655	26.6446867923036	
1512129028617.71	-3.45783132530121	5.06024096385542	6.21686746987952	-3.26670754138565	4.92458614347026	6.42550582464746	18.824427480916	-27.1603053435114	214.824427480916	102.414566406655	26.6446867923036	
1512129028621.61	-3.60240963855422	5.09638554216868	6.16867469879518	-3.5904353157572	4.94420600858369	6.03310852237891	18.8854961832061	-15.236641221374	214.992366412214	102.414566406655	26.6446867923036	
1512129028625.52	-3.1566265060241	5.03614457831325	6.1566265060241	-3.16860821581852	4.81667688534641	6.13120784794605	23.3129770992366	-17.6488549618321	213.679389312977	102.420473719964	26.6446867923036	
1512129028629.43	-2.33734939759036	4.6144578313253	6.5421686746988	-2.67811158798283	4.64009809932557	6.33721643163703	31.9083969465649	-17.2824427480916	205.435114503817	102.420473719964	26.6446867923036	
1512129028633.33	-1.19277108433735	3.65060240963855	6.98795180722892	-1.19681177191907	3.70815450643777	6.99448191293685	47.206106870229	-6.15267175572519	187.923664122137	102.420473719964	26.6446867923036	
1512129028637.24	-0.337349397590361	2.92771084337349	7.27710843373494	-0.568976088289393	3.28632740649908	7.23973022685469	66.030534351145	18.0152671755725	163.572519083969	102.423427377771	26.6446867923036	
1512129028641.14	-0.120481927710843	2.96385542168675	7.34939759036145	0.196198651134273	2.75659104843654	7.5340282035561	84.3053435114504	55.9847328244275	137.93893129771	102.423427377771	26.6446867923036	
1512129028645.05	-0.831325301204819	3.67469879518072	7.02409638554217	-0.0490496627835684	3.02145922746781	7.18087063151441	93.618320610687	94.2137404580153	122.809160305344	102.423427377771	26.6446867923036	
1512129028648.96	-1.59036144578313	4.24096385542169	6.66265060240964	-0.990803188228081	3.62967504598406	6.91600245248314	100.229007633588	125.007633587786	116.931297709924	102.411612751153	26.6446867923036	
1512129028652.86	-2.78313253012048	5.16867469879518	6.2289156626506	-2.43286327406499	4.63028816676885	6.32740649908032	104.931297709924	143.328244274809	118.931297709924	102.411612751153	26.6446867923036	
1512129028656.77	-3.72289156626506	5.7710843373494	5.95180722891566	-3.13917841814837	4.99325567136726	6.09196811771919	105.63358778626	150.595419847328	126.549618320611	102.411612751153	26.6446867923036	
1512129028660.68	-4.55421686746988	6.31325301204819	5.78313253012048	-4.40465971796444	5.84671980380135	5.62109135499693	105.908396946565	144.687022900763	138.320610687023	102.423427377771	26.6446867923036	
1512129028664.58	-4.95180722891566	6.46987951807229	5.51807228915663	-4.72838749233599	6.03310852237891	5.53280196198651	104.702290076336	132.30534351145	148.259541984733	102.423427377771	26.6446867923036	
1512129028668.49	-5.50602409638554	7.0	5.21686746987952	-5.44451256897609	6.62170447578173	5.0226854690374	100.809160305344	112.900763358779	157.022900763359	102.423427377771	26.6446867923036	
1512129028672.39	-5.86746987951807	7.28915662650602	5.09638554216868	-5.83690987124464	6.98467198038014	4.70876762722256	89.8931297709924	89.4503816793893	162.137404580153	102.426381036346	26.6446867923036	
1512129028676.3	-6.3855421686747	7.60240963855422	4.91566265060241	-6.12139791538933	7.22992029429798	4.43408951563458	75.3587786259542	60.8702290076336	164.625954198473	102.426381036346	26.6446867923036	
1512129028680.21	-6.63855421686747	7.86746987951807	5.25301204819277	-6.52360515021459	7.65174739423666	4.3752299202943	56.4732824427481	29.0839694656489	163.603053435115	102.426381036346	26.6446867923036	
1512129028684.11	-7.02409638554217	8.25301204819277	5.73493975903615	-6.83752299202943	8.05395462906193	4.48313917841815	33.1145038167939	-7.63358778625954	159.496183206107	102.417520062926	26.6446867923036	
1512129028688.02	-5.86746987951807	7.36144578313253	6.68674698795181	-5.98405885959534	7.56345800122624	5.46413243408952	9.61832061068702	-36.2748091603053	146.854961832061	102.417520062926	26.6446867923036	
1512129028691.93	-5.01204819277108	7.25301204819277	6.90361445783133	-4.84610668301655	7.30839975475169	6.24892703862661	-4.0	-49.2977099236641	128.18320610687	102.417520062926	26.6446867923036	
1512129028695.83	-4.20481927710843	7.36144578313253	7.3855421686747	-4.40465971796444	7.25935009196812	6.57265481299816	-16.1526717557252	-54.0458015267176	107.725190839695	102.426381036346	26.6446867923036	
1512129028699.74	-3.25301204819277	7.10843373493976	7.74698795180723	-3.43347639484978	7.04353157572042	7.20049049662784	-22.5343511450382	-58.7328244274809	93.6641221374046	102.426381036346	26.6446867923036	
1512129028703.64	-1.5421686746988	8.24096385542169	9.42168674698795	-2.7958307786634	7.28877988963826	7.77927651747394	-20.2595419847328	-75.8320610687023	90.7022900763359	102.426381036346	26.6446867923036	
1512129028707.55	-1.3855421686747	6.95180722891566	11.8313253012048	-1.89331698344574	7.16125076640098	10.4770079705702	-12.1984732824427	-71.4809160305344	94.0152671755725	102.429334695689	26.6446867923036	
1512129028711.46	-2.4578313253012	6.86746987951807	11.8313253012048	-1.68730839975475	7.01410177805028	10.3004291845494	-53.8778625954198	-4.15267175572519	117.81679389313	102.429334695689	26.6446867923036	
1512129028715.36	-7.73493975903615	8.39759036144578	8.83132530120482	-5.3071735131821	7.62231759656652	9.22133660331085	-103.160305343511	42.793893129771	121.969465648855	102.429334695689	26.6446867923036	
1512129028719.27	-7.68674698795181	10.2771084337349	7.93975903614458	-5.54261189454322	9.6137339055794	8.23053341508277	-122.473282442748	84.9160305343511	80.3969465648855	102.420473719964	26.6446867923036	
1512129028723.18	-4.69879518072289	8.5421686746988	7.37349397590361	-4.1594114040466	9.28019619865113	7.70079705702023	-113.954198473282	108.961832061069	-5.58778625954199	102.420473719964	26.6446867923036	
1512129028727.08	-3.33734939759036	7.14457831325301	8.6144578313253	-2.41324340895156	7.76946658491723	8.16186388718578	-112.24427480916	104.687022900763	-85.7251908396946	102.420473719964	26.6446867923036	
1512129028730.99	-2.37349397590361	6.67469879518072	8.19277108433735	-2.02084610668302	7.14163090128755	8.00490496627836	-121.679389312977	109.343511450382	-135.541984732824	102.417520062926	26.6446867923036	
1512129028734.89	-3.46987951807229	6.53012048192771	7.21686746987952	-3.12936848559166	6.51379521765788	7.06315144083384	-133.312977099237	76.2900763358779	-140.580152671756	102.417520062926	26.6446867923036	
1512129028738.8	-4.87951807228916	6.6144578313253	6.67469879518072	-5.56223175965665	6.36664622930717	6.44512568976088	-142.396946564886	39.0229007633588	-106.36641221374	102.417520062926	26.6446867923036	
1512129028742.71	-5.60240963855422	6.81927710843374	6.14457831325301	-6.54322501532802	6.46474555487431	6.21949724095647	-142.824427480916	15.8015267175573	-43.8931297709924	102.429334695689	26.6446867923036	
1512129028746.61	-5.04819277108434	6.8433734939759	6.01204819277108	-6.817903126916	6.54322501532802	6.26854690374004	-130.36641221374	2.25954198473282	34.9465648854962	102.429334695689	26.6446867923036	
1512129028750.52	-4.02409638554217	6.98795180722892	5.83132530120482	-6.03310852237891	6.69037400367872	6.40588595953403	-99.1450381679389	3.31297709923664	96.7480916030534	102.429334695689	26.6446867923036	
1512129028754.43	-3.91566265060241	5.86746987951807	5.87951807228916	-4.47332924586144	6.11158798283262	6.43531575720417	-64.381679389313	13.4198473282443	113.832061068702	102.426381036346	26.6446867923036	
1512129028758.33	-4.75903614457831	4.87951807228916	6.75903614457831	-4.31637032495402	5.2385039852851	6.87676272225628	-29.1145038167939	33.0839694656489	102.36641221374	102.426381036346	26.6446867923036	
1512129028762.24	-5.68674698795181	4.31325301204819	6.60240963855422	-4.62047823421214	4.86572654812998	6.99448191293685	1.57251908396947	47.0076335877863	78.9312977099237	102.426381036346	26.6446867923036	
1512129028766.14	-6.08433734939759	4.08433734939759	5.79518072289157	-5.20907418761496	4.21827099938688	6.63151440833844	35.0687022900763	34.5343511450382	59.4351145038168	102.411612751153	26.6446867923036	
1512129028770.05	-3.66265060240964	5.1566265060241	4.20481927710843	-4.24770079705702	4.84610668301655	5.62109135499693	82.2900763358779	13.9083969465649	39.7099236641221	102.411612751153	26.6446867923036	
1512129028773.96	-3.72289156626506	5.43373493975904	4.04819277108434	-3.8749233599019	5.01287553648069	4.76762722256284	111.526717557252	32.8702290076336	34.8549618320611	102.411612751153	26.6446867923036	
1512129028777.86	-4.78313253012048	5.27710843373494	5.03614457831325	-4.3752299202943	4.74800735744942	5.36603310852238	134.30534351145	52.2900763358779	36.6106870229008	102.423427377771	26.6446867923036	
1512129028781.77	-5.48192771084337	4.75903614457831	6.19277108433735	-5.11097486204782	4.70876762722256	5.79767014101778	158.458015267176	58.3664122137405	38.0	102.423427377771	26.6446867923036	
1512129028785.68	-4.74698795180723	4.85542168674699	5.93975903614458	-4.81667688534641	4.62047823421214	5.77805027590435	169.374045801527	53.7862595419847	34.9618320610687	102.423427377771	26.6446867923036	
1512129028789.58	-3.83132530120482	5.34939759036145	5.59036144578313	-4.22808093194359	4.95401594114041	5.28755364806867	165.587786259542	41.175572519084	31.1145038167939	102.417520062926	26.6446867923036	
1512129028793.49	-4.39759036144578	5.51807228915663	5.5421686746988	-4.17903126916002	5.15021459227468	5.08154506437768	143.908396946565	39.7251908396947	26.8091603053435	102.417520062926	26.6446867923036	
1512129028797.39	-4.79518072289157	5.78313253012048	5.42168674698795	-4.26732066217045	5.41508277130595	5.03249540159411	135.511450381679	36.7633587786259	13.3893129770992	102.417520062926	26.6446867923036	
1512129028801.3	-4.8433734939759	5.57831325301205	5.53012048192771	-4.56161863887186	5.46413243408952	5.05211526670754	132.732824427481	40.5038167938931	-3.43511450381679	102.420473719964	26.6446867923036	
1512129028805.21	-4.97590361445783	5.67469879518072	5.81927710843374	-4.89515634580012	5.53280196198651	5.34641324340895	127.587786259542	44.5038167938931	-10.3969465648855	102.420473719964	26.6446867923036	
1512129028809.11	-5.13253012048193	5.8433734939759	6.42168674698795	-5.01287553648069	5.61128142244022	5.56223175965665	122.351145038168	43.4045801526718	-10.7022900763359	102.420473719964	26.6446867923036	
1512129028813.02	-5.08433734939759	6.21686746987952	6.46987951807229	-5.00306560392397	5.96443899448191	5.61128142244022	95.9847328244275	54.5801526717557	-13.3587786259542	102.414566406655	26.6446867923036	
1512129028816.93	-4.30120481927711	7.87951807228916	10.566265060241	-4.64990803188228	6.6020846106683	6.43531575720417	57.8167938931298	54.5343511450382	-15.587786259542	102.414566406655	26.6446867923036	
1512129028820.83	-5.91566265060241	7.85542168674699	8.96385542168675	-5.08154506437768	7.64193746167995	6.80809319435929	-67.3587786259542	-46.9007633587786	-10.5343511450382	102.414566406655	26.6446867923036	
1512129028824.74	-4.13253012048193	8.10843373493976	6.40963855421687	-4.56161863887186	7.94604537093808	6.63151440833844	-131.847328244275	-110.290076335878	-40.1068702290076	102.423427377771	26.6446867923036	
1512129028828.64	-3.89156626506024	8.57831325301205	5.83132530120482	-4.63028816676885	8.17167381974249	6.4549356223176	-107.404580152672	-80.7175572519084	-27.4656488549618	102.423427377771	26.6446867923036	
1512129028832.55	-4.66265060240964	8.14457831325301	5.89156626506024	-4.98344573881055	8.05395462906193	5.72900061312078	-86.6106870229008	-45.5267175572519	9.19083969465649	102.423427377771	26.6446867923036	
1512129028836.46	-4.93975903614458	7.90361445783133	5.96385542168675	-4.90496627835684	7.94604537093808	5.44451256897609	-94.9312977099237	-37.1908396946565	22.2290076335878	102.420473719964	26.6446867923036	
1512129028840.36	-3.73493975903614	10.2048192771084	6.16867469879518	-3.95340282035561	9.30962599632128	5.27774371551196	-116.274809160305	-49.4656488549618	11.4656488549618	102.420473719964	26.6446867923036	
1512129028844.27	-4.34939759036145	8.91566265060241	5.74698795180723	-3.93378295524218	8.93684855916615	5.20907418761496	-145.725190839695	-42.8091603053435	-0.854961832061069	102.420473719964	26.6446867923036	
1512129028848.18	-4.85542168674699	7.69879518072289	5.56626506024096	-4.75781729000613	8.22072348252606	5.17964438994482	-160.351145038168	-38.3206106870229	2.29007633587786	102.426381036346	26.6446867923036	
1512129028852.08	-5.0	6.87951807228916	5.6144578313253	-5.17964438994482	7.12201103617413	5.40527283874923	-164.824427480916	-41.587786259542	14.9312977099237	102.426381036346	26.6446867923036	
1512129028855.99	-4.7710843373494	6.63855421686747	6.06024096385542	-5.0913549969344	6.76885346413243	5.59166155732679	-160.824427480916	-50.030534351145	27.7862595419847	102.426381036346	26.6446867923036	
1512129028859.89	-4.44578313253012	6.75903614457831	6.53012048192771	-4.84610668301655	6.61189454322502	6.19987737584304	-155.297709923664	-53.618320610687	38.5496183206107	102.423427377771	26.6446867923036	
1512129028863.8	-4.24096385542169	6.62650602409639	6.71084337349398	-4.63028816676885	6.61189454322502	6.41569589209074	-149.389312977099	-49.3282442748092	48.1374045801527	102.423427377771	26.6446867923036	
1512129028867.71	-4.28915662650602	6.56626506024096	6.78313253012048	-4.48313917841815	6.42550582464746	6.64132434089516	-142.778625954198	-41.9389312977099	55.6946564885496	102.423427377771	26.6446867923036	
1512129028871.61	-4.42168674698795	6.63855421686747	6.80722891566265	-4.48313917841815	6.44512568976088	6.6707541385653	-137.251908396947	-36.3358778625954	60.2748091603053	102.420473719964	26.6446867923036	
1512129028875.52	-4.56626506024096	6.7710843373494	6.87951807228916	-4.56161863887186	6.50398528510116	6.6707541385653	-133.770992366412	-37.4656488549618	63.1908396946565	102.420473719964	26.6446867923036	
1512129028879.43	-4.73493975903615	6.53012048192771	6.91566265060241	-4.71857755977928	6.3862660944206	6.6707541385653	-131.801526717557	-40.7022900763359	65.8167938931298	102.420473719964	26.6446867923036	
1512129028883.33	-4.53012048192771	6.01204819277108	6.79518072289157	-4.75781729000613	6.12139791538933	6.65113427345187	-130.381679389313	-42.8091603053435	65.0534351145038	102.429334695689	26.6446867923036	
1512129028887.24	-4.43373493975904	6.51807228915663	7.80722891566265	-4.74800735744942	6.21949724095647	7.3182096873084	-125.648854961832	-45.5114503816794	66.6106870229008	102.429334695689	26.6446867923036	
1512129028891.14	-4.5421686746988	6.09638554216868	7.95180722891566	-4.76762722256284	5.94481912936849	7.77927651747394	-117.740458015267	-70.793893129771	82.7480916030534	102.429334695689	26.6446867923036	
1512129028895.05	-4.37349397590361	5.40963855421687	8.01204819277108	-4.63028816676885	5.61128142244022	7.82832618025751	-105.969465648855	-86.5190839694656	92.0610687022901	102.420473719964	26.6446867923036	
1512129028898.96	-4.02409638554217	4.7710843373494	8.08433734939759	-4.14960147148988	4.83629675045984	8.00490496627836	-96.1374045801527	-91.6946564885496	93.6030534351145	102.420473719964	26.6446867923036	
1512129028902.86	-3.78313253012048	4.30120481927711	8.26506024096386	-3.95340282035561	4.46351931330472	8.14224402207235	-85.6030534351145	-93.4656488549618	90.3206106870229	102.420473719964	26.6446867923036	
1512129028906.77	-3.49397590361446	4.08433734939759	8.36144578313253	-3.62967504598406	4.03188228080932	8.31882280809319	-74.5190839694656	-96.1526717557252	87.8778625954199	102.423427377771	26.6446867923036	
1512129028910.68	-3.36144578313253	3.89156626506024	8.36144578313253	-3.30594727161251	3.7277743715512	8.31882280809319	-64.6106870229008	-95.3740458015267	85.3282442748091	102.423427377771	26.6446867923036	
1512129028914.58	-3.24096385542169	3.83132530120482	8.32530120481928	-3.30594727161251	3.66891477621091	8.30901287553648	-57.3435114503817	-89.8625954198473	84.1679389312977	102.423427377771	26.6446867923036	
1512129028918.49	-3.1566265060241	3.8433734939759	8.39759036144578	-3.18822808093194	3.58062538320049	8.36787247087676	-50.4580152671756	-81.206106870229	82.4580152671756	102.426381036346	26.6446867923036	
1512129028922.39	-3.06024096385542	3.95180722891566	8.43373493975904	-3.13917841814837	3.66891477621091	8.29920294297977	-46.4427480916031	-70.6870229007634	80.0763358778626	102.426381036346	26.6446867923036	
1512129028926.3	-2.89156626506024	4.14457831325301	8.62650602409639	-2.98221949724096	3.82587369711833	8.42673206621704	-42.5190839694657	-60.0	79.7709923664122	102.426381036346	26.6446867923036	
1512129028930.21	-2.69879518072289	4.28915662650602	8.71084337349398	-2.82526057633354	3.8749233599019	8.45616186388719	-40.2290076335878	-48.3053435114504	79.4045801526718	102.417520062926	26.6446867923036	
1512129028934.11	-2.66265060240964	4.32530120481928	8.87951807228916	-2.59963212752912	4.07112201103617	8.61312078479461	-41.1908396946565	-33.9236641221374	76.6870229007634	102.417520062926	26.6446867923036	
1512129028938.02	-2.66265060240964	4.28915662650602	9.09638554216868	-2.5800122624157	4.12017167381974	8.91722869405273	-43.206106870229	-21.6488549618321	72.7175572519084	102.417520062926	26.6446867923036	
1512129028941.93	-2.62650602409639	4.34939759036145	9.28915662650602	-2.54077253218884	4.13979153893317	9.03494788473329	-43.618320610687	-12.6259541984733	66.1832061068702	102.420473719964	26.6446867923036	
1512129028945.83	-2.56626506024096	4.49397590361446	9.48192771084337	-2.45248313917842	4.27713059472716	9.26057633353771	-45.4351145038168	-6.33587786259542	59.8625954198473	102.420473719964	26.6446867923036	
1512129028949.74	-2.60240963855422	4.60240963855422	9.59036144578313	-2.49172286940527	4.3752299202943	9.38810545677498	-46.6564885496183	-2.21374045801527	53.7557251908397	102.420473719964	26.6446867923036	
1512129028953.64	-2.60240963855422	4.74698795180723	9.65060240963856	-2.47210300429185	4.49294911097486	9.38810545677498	-49.3435114503817	0.229007633587786	47.8473282442748	102.426381036346	26.6446867923036	
1512129028957.55	-2.67469879518072	4.80722891566265	9.68674698795181	-2.45248313917842	4.63028816676885	9.44696505211527	-53.8473282442748	2.59541984732824	41.9389312977099	102.426381036346	26.6446867923036	
1512129028961.46	-2.63855421686747	4.95180722891566	9.55421686746988	-2.41324340895156	4.68914776210914	9.45677498467198	-58.8396946564886	5.16030534351145	33.2671755725191	102.426381036346	26.6446867923036	
1512129028965.36	-2.30120481927711	5.65060240963855	9.46987951807229	-2.41324340895156	5.24831391784181	9.53525444512569	-63.9847328244275	8.83969465648855	23.5267175572519	102.417520062926	26.6446867923036	
1512129028969.27	-2.66265060240964	5.68674698795181	9.44578313253012	-2.52115266707541	5.42489270386266	9.51563458001226	-51.3282442748092	34.3664122137405	26.4427480916031	102.417520062926	26.6446867923036	
1512129028973.18	-2.7710843373494	5.83132530120482	9.33734939759036	-2.80564071122011	5.53280196198651	9.24095646842428	-46.6717557251908	47.1145038167939	30.5801526717557	102.417520062926	26.6446867923036	
1512129028977.08	-2.68674698795181	5.43373493975904	9.48192771084337	-2.62906192519926	5.21888412017167	9.27038626609442	-46.1374045801527	49.3282442748092	32.1984732824427	102.423427377771	26.6446867923036	
1512129028980.99	-2.95180722891566	4.68674698795181	9.49397590361446	-2.57020232985898	4.88534641324341	9.26057633353771	-46.6717557251908	51.8320610687023	29.0229007633588	102.423427377771	26.6446867923036	
1512129028984.89	-3.14457831325301	4.25301204819277	9.56626506024096	-3.0116492949111	4.27713059472716	9.34886572654813	-50.2595419847328	47.1450381679389	14.6259541984733	102.423427377771	26.6446867923036	
1512129028988.8	-3.24096385542169	4.06024096385542	9.68674698795181	-3.28632740649908	4.03188228080932	9.53525444512569	-52.2290076335878	40.9160305343511	8.53435114503817	102.426381036346	26.6446867923036	
1512129028992.71	-2.32530120481928	4.66265060240964	9.62650602409639	-2.80564071122011	4.32618025751073	9.66278356836297	-44.8549618320611	39.1908396946565	13.175572519084	102.426381036346	26.6446867923036	
1512129028996.61	-2.18072289156626	4.72289156626506	9.63855421686747	-2.57020232985898	4.34580012262416	9.60392397302268	-40.5954198473282	49.8778625954199	19.9083969465649	102.426381036346	26.6446867923036	
1512129029000.52	-2.49397590361446	4.91566265060241	9.65060240963856	-2.59963212752912	4.60085836909871	9.65297363580625	-35.7099236641221	65.6030534351145	28.9160305343511	102.417520062926	26.6446867923036	
1512129029004.43	-5.21686746987952	3.7710843373494	8.87951807228916	-3.83568362967505	3.9435928877989	9.17228694052728	-30.6717557251908	75.4351145038168	40.4885496183206	102.417520062926	26.6446867923036	
1512129029008.33	-3.16867469879518	4.27710843373494	9.06024096385542	-3.61005518087063	3.86511342734519	8.9662783568363	-24.0152671755725	115.419847328244	-3.19083969465649	102.417520062926	26.6446867923036	
1512129029012.24	-2.28915662650602	5.46987951807229	9.93975903614458	-3.11955855303495	4.82648681790313	9.31943592887799	-18.7175572519084	107.87786259542	-7.57251908396947	102.417520062926	26.6446867923036	
1512129029016.14	-1.68674698795181	5.83132530120482	10.3253012048193	-2.87431023911711	5.18945432250153	9.56468424279583	-22.5648854961832	83.6335877862595	15.7099236641221	102.417520062926	26.6446867923036	
1512129029020.05	-1.55421686746988	6.10843373493976	10.1686746987952	-2.45248313917842	5.60147148988351	9.72164316370325	-34.3969465648855	71.5267175572519	46.6412213740458	102.417520062926	26.6446867923036	
1512129029023.96	-1.89156626506024	6.44578313253012	9.89156626506024	-2.43286327406499	6.11158798283262	9.5450643776824	-46.1679389312977	62.8091603053435	75.1450381679389	102.417520062926	26.6446867923036	
1512129029027.86	-2.48192771084337	6.79518072289157	9.71084337349398	-2.67811158798283	6.29797670141018	9.41753525444513	-59.0076335877863	57.3129770992366	99.8015267175573	102.417520062926	26.6446867923036	
1512129029031.77	-2.5421686746988	7.71084337349398	9.30120481927711	-2.78602084610668	7.22992029429798	8.91722869405273	-74.5190839694656	57.0381679389313	119.022900763359	102.417520062926	26.6446867923036	
1512129029035.68	-3.26506024096386	7.14457831325301	9.16867469879518	-3.1587982832618	7.13182096873084	8.73083997547517	-92.1526717557252	60.4580152671756	133.083969465649	102.40865909642	26.6446867923036	
1512129029039.58	-2.86746987951807	6.71084337349398	9.59036144578313	-3.41385652973636	6.70018393623544	8.86817903126916	-107.389312977099	55.9541984732824	143.297709923664	102.40865909642	26.6446867923036	
1512129029043.49	-2.39759036144578	6.55421686746988	9.65060240963856	-3.28632740649908	6.37645616186389	9.04475781729001	-127.297709923664	42.6259541984733	160.030534351145	102.40865909642	26.6446867923036	
1512129029047.39	-2.49397590361446	6.24096385542169	9.75903614457831	-3.11955855303495	6.15082771305947	9.29981606376456	-148.687022900763	21.6335877862595	189.648854961832	102.411612751153	26.6446867923036	
1512129029051.3	-2.50602409638554	6.26506024096386	9.74698795180723	-3.02145922746781	5.90557939914163	9.42734518700184	-157.541984732824	1.90839694656489	216.992366412214	102.411612751153	26.6446867923036	
1512129029055.21	-2.8433734939759	5.97590361445783	9.78313253012048	-3.03126916002452	5.79767014101778	9.48620478234212	-160.473282442748	-3.49618320610687	235.75572519084	102.411612751153	26.6446867923036	
1512129029059.11	-3.04819277108434	5.65060240963855	9.89156626506024	-3.06069895769467	5.5229920294298	9.56468424279583	-169.236641221374	5.46564885496183	251.190839694656	102.426381036346	26.6446867923036	
1512129029063.02	-3.13253012048193	5.26506024096386	10.0602409638554	-3.10974862047823	5.27774371551196	9.66278356836297	-173.93893129771	3.54198473282443	251.053435114504	102.426381036346	26.6446867923036	
1512129029066.93	-2.98795180722892	5.04819277108434	10.1807228915663	-3.0116492949111	4.90496627835684	9.94727161250766	-173.893129770992	-1.05343511450382	247.862595419847	102.426381036346	26.6446867923036	
1512129029070.83	-2.86746987951807	4.68674698795181	10.1927710843374	-2.75659104843654	4.56161863887186	10.1336603310852	-170.549618320611	-7.48091603053435	242.992366412214	102.417520062926	26.6446867923036	
1512129029074.74	-2.63855421686747	4.48192771084337	10.2048192771084	-2.63887185775598	4.34580012262416	10.2023298589822	-164.748091603053	-17.3587786259542	238.015267175572	102.417520062926	26.6446867923036	
1512129029078.64	-2.51807228915663	4.30120481927711	10.1566265060241	-2.37400367872471	4.08093194359289	10.1827099938688	-158.961832061069	-24.7175572519084	231.236641221374	102.417520062926	26.6446867923036	
1512129029082.55	-2.31325301204819	4.0	10.0602409638554	-2.28571428571429	3.89454322501533	10.1336603310852	-151.93893129771	-30.4274809160305	223.099236641221	102.423427377771	26.6446867923036	
1512129029086.46	-2.01204819277108	3.93975903614458	9.95180722891566	-1.99141630901288	3.71796443899448	10.0159411404047	-146.12213740458	-30.2442748091603	214.870229007634	102.423427377771	26.6446867923036	
1512129029090.36	-1.78313253012048	3.81927710843374	9.87951807228916	-1.75597792765175	3.54138565297364	9.80012262415696	-140.06106870229	-30.2900763358779	208.259541984733	102.423427377771	26.6446867923036	
1512129029094.27	-1.53012048192771	3.69879518072289	9.49397590361446	-1.63825873697118	3.40404659717964	9.62354383813611	-133.587786259542	-26.1374045801527	205.81679389313	102.426381036346	26.6446867923036	
1512129029098.18	-1.25301204819277	3.36144578313253	9.27710843373494	-1.35377069282649	3.16860821581852	9.3292458614347	-126.748091603053	-31.1145038167939	204.30534351145	102.426381036346	26.6446867923036	
1512129029102.08	-0.807228915662651	2.90361445783133	9.24096385542169	-1.11833231146536	2.90374003678725	9.24095646842428	-118.809160305344	-35.5114503816794	206.045801526718	102.426381036346	26.6446867923036	
1512129029105.99	-0.421686746987952	2.60240963855422	9.48192771084337	-0.804414469650521	2.41324340895156	9.37829552421827	-112.06106870229	-32.8854961832061	214.24427480916	102.417520062926	26.6446867923036	
1512129029109.89	-0.518072289156627	2.48192771084337	9.57831325301205	-0.902513795217658	2.17780502759043	9.42734518700184	-108.793893129771	-24.4427480916031	225.175572519084	102.417520062926	26.6446867923036	
1512129029113.8	-0.879518072289157	2.49397590361446	9.69879518072289	-0.892703862660944	2.14837522992029	9.58430410790926	-104.030534351145	-21.2213740458015	235.93893129771	102.417520062926	26.6446867923036	
1512129029117.71	-1.40963855421687	2.74698795180723	9.83132530120482	-1.20662170447578	2.35438381361128	9.79031269160024	-97.9847328244275	-21.7557251908397	238.503816793893	102.417520062926	26.6446867923036	
1512129029121.61	-1.69879518072289	3.0	9.81927710843374	-1.30472103004292	2.54077253218884	9.83936235438381	-87.5572519083969	-25.175572519084	230.687022900763	102.417520062926	26.6446867923036	
1512129029125.52	-1.67469879518072	3.16867469879518	9.59036144578313	-1.26548129981606	2.75659104843654	9.80012262415696	-71.5267175572519	-28.3206106870229	215.465648854962	102.417520062926	26.6446867923036	
1512129029129.43	-0.843373493975904	3.12048192771084	9.37349397590362	-1.09871244635193	2.75659104843654	9.7608828939301	-50.5343511450382	-32.9770992366412	202.442748091603	102.420473719964	26.6446867923036	
1512129029133.33	-0.373493975903614	3.04819277108434	9.33734939759036	-0.608215818516248	2.71735131820969	9.52544451256898	-32.8091603053435	-36.8702290076336	200.885496183206	102.420473719964	26.6446867923036	
1512129029137.24	-0.192771084337349	3.24096385542169	9.43373493975904	-0.48068669527897	2.86450030656039	9.36848559166156	-24.3358778625954	-32.7633587786259	206.946564885496	102.420473719964	26.6446867923036	
1512129029141.14	-0.0120481927710843	3.36144578313253	9.49397590361446	-0.421827099938688	2.91354996934396	9.3292458614347	-23.3282442748092	-23.3587786259542	219.343511450382	102.417520062926	26.6446867923036	
1512129029145.05	0.168674698795181	3.40963855421687	9.43373493975904	-0.392397302268547	2.97240956468424	9.26057633353771	-22.4274809160305	-15.7404580152672	239.847328244275	102.417520062926	26.6446867923036	
1512129029148.96	0.228915662650602	3.21686746987952	9.49397590361446	-0.284488044144696	2.92335990190067	9.36848559166156	-19.5725190839695	-9.87786259541985	262.534351145038	102.417520062926	26.6446867923036	
1512129029152.86	0.0240963855421687	3.2289156626506	9.48192771084337	-0.313917841814837	2.7958307786634	9.57449417535254	-8.01526717557252	-2.74809160305343	282.30534351145	102.423427377771	26.6446867923036	
1512129029156.77	-0.168674698795181	3.28915662650602	9.69879518072289	-0.500306560392397	2.86450030656039	9.88841201716738	9.77099236641221	0.106870229007634	298.18320610687	102.423427377771	26.6446867923036	
1512129029160.68	-0.132530120481928	3.63855421686747	9.98795180722892	-0.451256897608829	3.0116492949111	10.0257510729614	27.7862595419847	4.25954198473282	313.297709923664	102.423427377771	26.6446867923036	
1512129029164.58	-0.036144578313253	4.09638554216868	10.3253012048193	-0.353157572041692	3.49233599019007	10.3592887798896	47.0381679389313	-0.274809160305344	328.152671755725	102.420473719964	26.6446867923036	
