"sep=	"
Shimmer_CE9F_Timestamp_Unix_CAL	Shimmer_CE9F_Accel_LN_X_CAL	Shimmer_CE9F_Accel_LN_Y_CAL	Shimmer_CE9F_Accel_LN_Z_CAL	Shimmer_CE9F_Gyro_X_CAL	Shimmer_CE9F_Gyro_Y_CAL	Shimmer_CE9F_Gyro_Z_CAL	Shimmer_CE9F_Mag_X_CAL	Shimmer_CE9F_Mag_Y_CAL	Shimmer_CE9F_Mag_Z_CAL	
ms	m/(s^2)	m/(s^2)	m/(s^2)	deg/s	deg/s	deg/s	local_flux	local_flux	local_flux	
1512153329633.51	-3.20246641179939	4.0950181210736	7.365657772158	7.99878806241478	-8.89825692306347	16.7188985494336	-0.0736363636363636	0.37	0.0510204081632653	
1512153329637.42	-3.17977135421047	4.06022075541731	7.23093650646213	14.3160127253446	-8.66521123966843	16.8670384524101	-0.0709090909090909	0.355454545454545	0.0571428571428572	
1512153329641.33	-3.24182729776063	4.06131200167394	7.12181188079922	20.8604756855022	-8.60392311859616	17.0298837342119	-0.07	0.371818181818182	0.0520408163265306	
1512153329645.23	-3.26645081378438	4.13456698020708	7.02522969013504	27.0110589304651	-8.40644881791395	16.8595818555356	-0.0727272727272727	0.373636363636364	0.05	
1512153329649.14	-3.30254017916494	4.25576488650783	6.95363183114453	33.2828359339494	-8.65924659603242	16.6162698291906	-0.0718181818181818	0.352727272727273	0.0469387755102041	
1512153329653.05	-3.31484716292853	4.35323701174122	6.84497352467353	38.7062566277837	-8.58988269995699	16.6223827279886	-0.0718181818181818	0.352727272727273	0.0469387755102041	
1512153329656.95	-3.27704210899645	4.55889316227658	6.76128618198102	42.7056506589911	-8.41096712869156	16.7637218660552	-0.0727272727272727	0.372727272727273	0.0469387755102041	
1512153329660.86	-3.18961453206222	4.78803855558456	6.73831311624232	48.4926526283896	-6.63151081903946	16.7948785864846	-0.0718181818181818	0.351818181818182	0.0459183673469388	
1512153329664.76	-3.3262986895405	4.58371384740925	6.68885622293047	52.3405544614452	-5.39726926314413	16.3778126844125	-0.0718181818181818	0.370909090909091	0.0428571428571429	
1512153329668.67	-3.3277462269287	4.59734589807519	6.53047043344516	53.7342826844417	-4.53359294346109	17.0419470168279	-0.0709090909090909	0.37	0.0428571428571429	
1512153329672.58	-3.34018537657465	4.54891282394427	6.55450073810275	55.4309953037418	-1.99512557705023	18.2509304832611	-0.0727272727272727	0.367272727272727	0.0387755102040816	
1512153329676.48	-3.27848773668533	4.59686306732924	6.57875350804015	54.8856233903954	-1.34606585007068	19.5622696161121	-0.0727272727272727	0.37	0.0377551020408163	
1512153329680.39	-3.19240131219764	4.65698467644668	6.59068898183766	52.0375700651416	-1.05486207065907	20.3508474202841	-0.0727272727272727	0.37	0.0377551020408163	
1512153329684.3	-3.15484722213509	4.74119540896052	6.6033506702134	48.6289956067262	-0.842291632265266	21.5578417959032	-0.0727272727272727	0.369090909090909	0.0346938775510204	
1512153329688.2	-3.10400520922255	4.92166143568638	6.62903715425397	44.9628844114528	-0.495535719946404	22.3998252159691	-0.0718181818181818	0.367272727272727	0.0346938775510204	
1512153329692.11	-2.73779653905294	6.86818868152496	7.15703546196188	41.599757612483	-0.118217181036908	21.8345360377731	-0.0736363636363636	0.35	0.0336734693877551	
1512153329696.01	-2.93684723063942	5.76484537584661	6.64799253582096	43.3570671110438	-4.00017936258519	3.02471282555219	-0.0754545454545455	0.349090909090909	0.0316326530612245	
1512153329699.92	-3.75586103208247	4.5986444201571	6.4006182252541	40.3272231480079	-1.0416764650088	-4.9098705744143	-0.0727272727272727	0.348181818181818	0.0295918367346939	
1512153329703.83	-3.54698859534652	4.68226258766454	6.47253641426914	33.1767913952431	1.9494342373385	1.38839896754111	-0.0718181818181818	0.365454545454545	0.0295918367346939	
1512153329707.73	-3.24069318609946	4.66866101873761	6.62787402985325	26.2990455991516	4.79870729033462	8.44836933513688	-0.0718181818181818	0.365454545454545	0.0295918367346939	
1512153329711.64	-3.20169537804733	4.69056399181206	6.84721527662542	21.2543554006969	7.58874631300477	11.91971792228	-0.0727272727272727	0.366363636363636	0.0306122448979592	
1512153329715.55	-3.15062054340872	4.76126581988556	7.00594813192563	15.7551886077867	8.29285840794714	15.0502260764625	-0.0745454545454545	0.366363636363636	0.0306122448979592	
1512153329719.45	-3.06295537050014	4.94149165050801	7.05565422630764	9.27132252688986	6.9764763695229	18.5312500745182	-0.0681818181818182	0.349090909090909	0.0275510204081633	
1512153329723.36	-2.9373682553716	5.27857599593631	7.08215944251308	3.19648538100288	6.68219792434747	21.6164580929346	-0.0727272727272727	0.348181818181818	0.0285714285714286	
1512153329727.26	-2.94786366898823	5.38638814402234	7.1443181278862	-2.31783063172247	9.14782284180813	23.2950451107085	-0.0709090909090909	0.366363636363636	0.0357142857142857	
1512153329731.17	-3.04505191007395	5.39818153619108	7.16979818812119	-8.75624905317376	11.2621953142843	23.155163336107	-0.0745454545454545	0.37	0.0306122448979592	
1512153329735.08	-3.15504237871474	5.34973870790368	7.19480390842716	-14.7553400999848	13.8982806649916	23.0819720898482	-0.0745454545454545	0.37	0.0306122448979592	
1512153329738.98	-3.25198920442748	5.36128824616032	7.24466935987173	-19.7091349795485	16.2416690307261	22.7876122453268	-0.0727272727272727	0.37	0.0316326530612245	
1512153329742.89	-3.31284189051139	5.31248451408302	7.3057654591679	-24.6174821996667	18.07901962179	22.6809805360489	-0.0736363636363636	0.352727272727273	0.0295918367346939	
1512153329746.8	-3.32503962478437	5.26380758604001	7.35418115503507	-29.4046356612634	19.5249031675987	23.1264182619121	-0.0727272727272727	0.369090909090909	0.0244897959183673	
1512153329750.7	-3.34943222878136	5.20296051153408	7.41479222008608	-34.1463414634146	20.3251252210977	22.9521904929588	-0.0763636363636364	0.374545454545455	0.0316326530612245	
1512153329754.61	-3.41077061016018	5.11813770570089	7.46333786364642	-37.7518557794273	21.734372782484	22.9283726019823	-0.0772727272727273	0.372727272727273	0.0326530612244898	
1512153329758.51	-3.47234945206233	5.04572768097315	7.47542467376938	-40.3272231480079	23.2003330919985	23.168369465187	-0.0772727272727273	0.356363636363636	0.0316326530612245	
1512153329762.42	-3.49698442628195	4.97295553318595	7.52372378983858	-42.4935615815785	25.2203986215134	23.53607666241	-0.0772727272727273	0.356363636363636	0.0316326530612245	
1512153329766.33	-3.52174106303771	4.88813638516144	7.57190365253077	-44.0084835630965	26.9520890784915	23.7017710255724	-0.0781818181818182	0.377272727272727	0.0295918367346939	
1512153329770.23	-3.498204871042	4.80380982203936	7.57082502497959	-45.1295258294198	28.6227885883529	23.3300299849545	-0.0781818181818182	0.377272727272727	0.0326530612244898	
1512153329774.14	-3.49929792416798	4.71972467429026	7.54560486013092	-45.8112407211029	30.3493819785738	22.1140264922017	-0.0809090909090909	0.380909090909091	0.0336734693877551	
1512153329778.05	-3.52465809935618	4.63551516104598	7.53282124479914	-45.2507195879412	30.6995466809167	20.6094213887681	-0.0818181818181818	0.361818181818182	0.0326530612244898	
1512153329781.95	-3.54989947655721	4.52684586645894	7.55637720952772	-43.0692319345554	30.8412909593647	18.7549667285372	-0.0818181818181818	0.384545454545455	0.0336734693877551	
1512153329785.86	-3.53880338905711	4.38191730201259	7.59140232886192	-39.751552795031	30.2721533731135	16.6520959933036	-0.0818181818181818	0.366363636363636	0.0357142857142857	
1512153329789.76	-3.52746206678541	4.28542059242758	7.60251907049457	-35.9188001817906	28.3636882683249	12.6652047129085	-0.0818181818181818	0.366363636363636	0.0357142857142857	
1512153329793.67	-3.46661510979944	4.26121076134471	7.6138636245651	-31.8588092713225	26.0351684612165	9.39747034675511	-0.0790909090909091	0.366363636363636	0.0346938775510204	
1512153329797.58	-3.39394018039719	4.18869222162609	7.63680193377633	-28.9956067262536	23.8564720563409	7.6204436891377	-0.0854545454545455	0.387272727272727	0.0408163265306122	
1512153329801.48	-3.34553046335786	4.14038717079903	7.64802990804889	-26.8898651719436	21.7089961961704	7.02571377139973	-0.0836363636363636	0.39	0.0357142857142857	
1512153329805.39	-3.34601615865278	4.10436809704313	7.63547945231306	-24.7689743978185	20.0811509696661	6.1814730763386	-0.0827272727272727	0.388181818181818	0.0377551020408163	
1512153329809.3	-3.35881647650854	4.06846973097373	7.61085822792848	-23.0874109983336	18.6021611040012	5.61482045255236	-0.0854545454545455	0.389090909090909	0.0377551020408163	
1512153329813.2	-3.3718620291359	3.98413951004297	7.61014538124545	-21.1180124223602	17.4482620430048	5.24042098922008	-0.0854545454545455	0.391818181818182	0.0397959183673469	
1512153329817.11	-3.48197607001214	3.89931182713153	7.65917873262997	-19.1486138463869	18.2585963218999	4.29701249021511	-0.0854545454545455	0.391818181818182	0.0397959183673469	
1512153329821.01	-5.43933940513455	3.13881453253453	7.80529373449864	-16.8004847750341	30.8998139715494	0.0879095006489168	-0.0845454545454546	0.373636363636364	0.0408163265306122	
1512153329824.92	-4.19644416121168	4.19846406486355	7.8644368871388	-24.0266626268747	77.2356021724962	-27.3747568759995	-0.0845454545454546	0.392727272727273	0.0459183673469388	
1512153329828.83	-3.36933671621622	3.85988977203234	7.98692641122395	-22.8904711407362	83.6776962521173	-16.478465872356	-0.0836363636363636	0.394545454545455	0.0459183673469388	
1512153329832.73	-3.47281607974412	3.69548945801513	7.55948793342637	-15.6794425087108	85.7594111345556	-7.56788346468055	-0.0918181818181818	0.38	0.0428571428571429	
1512153329836.64	-3.56721181159648	3.91135029248192	7.66015147469932	-9.96818663838812	92.577554506473	-5.67883288209913	-0.0936363636363636	0.398181818181818	0.0418367346938776	
1512153329840.55	-3.37837313424878	4.10009699577278	8.06258957934899	-7.18073019239509	95.47730046723	-6.69709663514572	-0.0918181818181818	0.385454545454545	0.0448979591836735	
1512153329844.45	-3.49655697681604	4.26667004814675	8.27275422146914	-4.68110892289047	91.1094847619991	-6.98361841427389	-0.0918181818181818	0.385454545454545	0.0448979591836735	
1512153329848.36	-3.45852387540616	4.30171736406295	8.38248046117518	-5.40827147401909	87.6745655789091	-10.0855959488316	-0.0954545454545455	0.385454545454545	0.0459183673469388	
1512153329852.26	-3.48328433156054	4.16822250726499	8.4789540927785	-7.6200575670353	83.2300373872609	-12.7048255726567	-0.0981818181818182	0.387272727272727	0.0469387755102041	
1512153329856.17	-3.75801483503607	1.76523521540048	9.01864713465071	-11.5437054991668	77.7875902247319	-11.2835284245485	-0.0981818181818182	0.391818181818182	0.0448979591836735	
1512153329860.08	-2.56495201944969	3.20321395624992	8.59426702561066	-19.5727920012119	65.5222669492839	19.6839510005574	-0.0990909090909091	0.409090909090909	0.0459183673469388	
1512153329863.98	-1.94012909209498	3.66276912540011	8.42188264071154	-20.0121193758521	69.1934912072202	23.9855249052175	-0.101818181818182	0.411818181818182	0.0459183673469388	
1512153329867.89	-2.31911948258706	3.49334176298505	8.49714900269962	-17.5882442054234	72.2967244069309	19.8405239268114	-0.103636363636364	0.394545454545455	0.0448979591836735	
1512153329871.8	-2.93413973240542	3.32828060486607	8.13579493508003	-15.2249659142554	75.2138738790873	21.0237947292941	-0.103636363636364	0.394545454545455	0.0448979591836735	
1512153329875.7	-3.14385521324747	3.26985378043769	7.95438099237588	-13.1343735797606	88.2421527901931	26.7782980662811	-0.102727272727273	0.417272727272727	0.0479591836734694	
1512153329879.61	-2.88583640030773	3.46263138889548	7.95372858033106	-10.7256476291471	100.207739485974	33.5779396491107	-0.110909090909091	0.4	0.0459183673469388	
1512153329883.51	-2.54161809399107	3.61805726196778	8.07379187551081	-8.43811543705499	108.098886522622	38.7866976454697	-0.111818181818182	0.401818181818182	0.0469387755102041	
1512153329887.42	-3.42189540190994	1.78280306820765	8.46668113104264	-7.77154976518709	111.872562892135	41.0465833373708	-0.115454545454545	0.400909090909091	0.0459183673469388	
1512153329891.33	-3.64490121476111	3.1734028008062	9.16574401576543	-25.0416603544917	102.296166421075	-1.12352934267407	-0.117272727272727	0.404545454545455	0.0479591836734694	
1512153329895.23	-2.70159373753327	3.55851298433222	9.20894253063329	-45.144675049235	87.401724651084	-47.4544642851227	-0.120909090909091	0.409090909090909	0.0489795918367347	
1512153329899.14	-2.31707795526298	3.35741080560525	8.83723269248673	-59.4606877745796	72.8953903259148	-58.3672174665327	-0.120909090909091	0.409090909090909	0.0489795918367347	
1512153329903.05	-1.95342465374222	3.46916241364119	8.50544538286896	-66.8535070443872	68.35322164102	-50.7093356168957	-0.119090909090909	0.430909090909091	0.0540816326530612	
1512153329906.95	-1.72270688747103	3.45799206821786	8.41766064809347	-67.3988789577337	75.5842964748931	-32.8454738913321	-0.12	0.411818181818182	0.0540816326530612	
1512153329910.86	-1.50309762174547	3.43355423372718	8.45180554294497	-61.5058324496288	87.0909909279281	-15.6075988760999	-0.122727272727273	0.414545454545455	0.0581632653061225	
1512153329914.76	-1.34795749845017	3.42481511180744	8.12089845780989	-53.7948795637025	95.7305273421564	-6.53869113366734	-0.120909090909091	0.44	0.0663265306122449	
1512153329918.67	-1.78243692008963	3.87051022688389	8.12970020317705	-50.5832449628844	112.88403239871	-10.8168122387715	-0.127272727272727	0.421818181818182	0.0673469387755102	
1512153329922.58	-1.97052705406717	4.00944608144049	8.69394607281849	-48.5532495076503	125.308661492484	-21.3840656412889	-0.128181818181818	0.444545454545455	0.0673469387755102	
1512153329926.48	-1.81947146910947	4.27242195964331	8.90238234892167	-43.5237085290108	122.611146937392	-27.9540057742868	-0.128181818181818	0.444545454545455	0.0673469387755102	
1512153329930.39	-1.51364456786353	4.44184200644101	8.82784754866987	-39.9939403120739	113.74978776256	-28.6026584287243	-0.131818181818182	0.428181818181818	0.0653061224489796	
1512153329934.3	-1.25173732801548	4.95927898652605	8.89137845582834	-39.9636418724436	107.096499322767	-26.3237015334533	-0.136363636363636	0.429090909090909	0.0714285714285714	
1512153329938.2	-1.33968685515156	5.78929297918377	9.02250931053847	-42.3875170428723	105.387191533869	-24.252764942682	-0.14	0.430909090909091	0.0714285714285714	
1512153329942.11	-1.79170093021016	5.86311491806254	8.869231085312	-39.9333434328132	100.606024691875	-27.4799146654824	-0.14	0.454545454545455	0.073469387755102	
1512153329946.01	-2.0844918273253	5.65633582026198	9.06521315452465	-41.7058021511892	102.367585197619	-34.4384505788238	-0.144545454545455	0.454545454545455	0.073469387755102	
1512153329949.92	-2.18021438887937	5.88570677843866	9.01968360191708	-48.1593697924557	104.429278344946	-41.0784933782153	-0.146363636363636	0.459090909090909	0.0795918367346939	
1512153329953.83	-1.9493759149217	5.87441450605928	8.94409156274639	-58.3244962884411	106.228389411759	-45.7254909379477	-0.15	0.440909090909091	0.0826530612244898	
1512153329957.73	-1.67280620941916	5.52544532324521	8.90125080800957	-72.322375397667	107.26402334864	-51.1047956951362	-0.15	0.440909090909091	0.0826530612244898	
1512153329961.64	-1.60329259625733	5.16404263174314	8.89694164496293	-88.7895773367671	110.410387837808	-57.1367025350425	-0.154545454545455	0.445454545454545	0.0857142857142857	
1512153329965.55	-1.82658133840652	4.44983371612017	9.23349585786234	-103.044993182851	112.335386767209	-61.3930717978915	-0.152727272727273	0.467272727272727	0.0887755102040816	
1512153329969.45	-1.21004483140473	3.91982788842593	9.22203043451538	-112.66474776549	112.572153556619	-58.9949538076442	-0.154545454545455	0.468181818181818	0.0959183673469388	
1512153329973.36	-0.313865545458188	3.74360248123142	8.77228199734007	-122.572337524617	127.593300609713	-56.8333623853146	-0.161818181818182	0.454545454545455	0.102040816326531	
1512153329977.26	0.0953935056726826	3.45695446982189	8.52142048769027	-132.828359339494	109.462560131836	-56.320591969773	-0.161818181818182	0.46	0.106122448979592	
1512153329981.17	0.1765089534723	3.24218975868997	8.31114461293022	-130.404484169065	92.9986551651237	-55.6460851557106	-0.163636363636364	0.480909090909091	0.111224489795918	
1512153329985.08	0.0903037309974375	3.2065279309153	8.26286955907235	-124.405393122254	75.067006585768	-55.572540138908	-0.163636363636364	0.480909090909091	0.111224489795918	
1512153329988.98	-0.238567937851364	3.23046708415575	8.27859278924446	-115.906680805938	58.4890153995892	-53.7063055678196	-0.164545454545455	0.480909090909091	0.114285714285714	
1512153329992.89	-0.418323938373172	3.40981260215553	8.41633014589309	-109.619754582639	43.9540903992709	-48.8016067489797	-0.17	0.488181818181818	0.123469387755102	
1512153329996.8	-0.622718732513223	3.46771026359466	8.65066038752205	-102.181487653386	33.3774335348253	-44.5126309070061	-0.170909090909091	0.47	0.129591836734694	
1512153330000.7	-0.261577904856763	3.88609860290462	8.98050115532152	-98.1820936221784	27.4391530766248	-40.7697566162139	-0.170909090909091	0.492727272727273	0.13469387755102	
1512153330004.61	-1.10929116701427	3.17438797061107	9.06722703527869	-99.1819421299803	23.1808686042536	-42.731519861416	-0.171818181818182	0.493636363636364	0.138775510204082	
1512153330008.51	-1.38191995825743	2.95970982761794	8.84829434663924	-97.2731404332677	24.0802696063017	-32.3063743590278	-0.169090909090909	0.473636363636364	0.144897959183673	
1512153330012.42	-1.05591524753515	3.34012460406656	9.36103356924772	-92.6071807301924	32.5181231243413	-27.1268677025925	-0.169090909090909	0.473636363636364	0.144897959183673	
1512153330016.33	-0.796213210932176	3.44601274478615	9.6155929912645	-90.4559915164369	37.2479225313279	-19.5350641293157	-0.17	0.494545454545455	0.148979591836735	
1512153330020.23	-0.613313081463759	3.3365106890893	9.72242506697382	-90.3044993182851	41.5716150490167	-14.7270767730558	-0.173636363636364	0.479090909090909	0.147959183673469	
1512153330024.14	-0.492833883153932	3.19195887893713	9.7197747568892	-88.4108468413877	45.6744043104586	-12.3759317749044	-0.173636363636364	0.5	0.153061224489796	
1512153330028.05	-0.359432704452202	3.09535243509169	9.74186492456617	-85.062869262233	49.7599212805279	-10.1612387942559	-0.177272727272727	0.480909090909091	0.157142857142857	
1512153330031.95	-0.262490652987737	3.02295826086824	9.75236668426051	-80.8665353734282	52.7969113542247	-7.4714783363378	-0.179090909090909	0.502727272727273	0.163265306122449	
1512153330035.86	-0.166273802491852	2.93912672118771	9.70178571255387	-76.5490077261021	54.959353134274	-5.23198991829658	-0.18	0.479090909090909	0.161224489795918	
1512153330039.76	-0.00750671950398826	2.99974335374671	9.66421884219592	-74.1554309953037	57.5079327820745	-2.39723629514529	-0.18	0.479090909090909	0.161224489795918	
1512153330043.67	0.318591537104569	3.01511530207546	9.3318432864302	-74.1099833358582	60.5793630956396	-1.60435502146474	-0.180909090909091	0.503636363636364	0.166326530612245	
1512153330047.58	0.636955379291217	2.94079224340733	9.53523349059238	-63.4903802454173	67.434547888089	5.36266422926533	-0.183636363636364	0.509090909090909	0.169387755102041	
1512153330051.48	0.883741164600222	3.07174858098037	9.69261178148087	-50.886229359188	66.1798253650133	10.6665360375001	-0.189090909090909	0.510909090909091	0.174489795918367	
1512153330055.39	0.982254325688336	3.02210721071502	9.83747169958197	-41.7663990304499	64.2239824842488	13.1280870679494	-0.188181818181818	0.49	0.176530612244898	
1512153330059.3	0.887123844370839	3.10484140779112	9.99778693173176	-34.9189516739888	62.6037771340272	15.0291184781938	-0.19	0.511818181818182	0.176530612244898	
1512153330063.2	0.243018139537161	3.09041317410219	10.2357910235164	-28.1623996364187	59.4859093754904	13.7719167414617	-0.19	0.494545454545455	0.178571428571429	
1512153330067.11	0.124838116368531	3.30566193524961	10.3976618967254	-23.9812149674292	57.0463897756294	7.3299617114022	-0.19	0.494545454545455	0.178571428571429	
1512153330071.01	0.223610834973079	3.48698632774605	10.3375118037082	-20.6635358279049	51.9341010066568	1.86950097113328	-0.194545454545455	0.494545454545455	0.179591836734694	
1512153330074.92	0.357991997911546	3.57193837615265	10.2760419028068	-18.5274958339645	49.1853197060207	-0.993286616562772	-0.195454545454545	0.516363636363636	0.180612244897959	
1512153330078.83	0.590044232681681	3.64460932456633	10.2378627240896	-16.2096652022421	46.9987587037474	-3.43622910074067	-0.197272727272727	0.494545454545455	0.180612244897959	
1512153330082.73	0.785875891038559	3.70474190710982	10.2487008552827	-14.9522799575822	46.0553876307499	-5.98782033356061	-0.197272727272727	0.515454545454546	0.180612244897959	
1512153330086.64	0.944881524850431	3.72860790417664	10.2717397028177	-13.4828056355098	44.1453044050078	-8.15036068127044	-0.198181818181818	0.516363636363636	0.18265306122449	
1512153330090.55	1.11645083539337	3.84946075719178	10.2346471723887	-11.3770640811998	39.8414435672639	-10.0664231325686	-0.2	0.520909090909091	0.185714285714286	
1512153330094.45	1.12949829772004	3.95812883250926	10.2112131346162	-8.01393728222996	35.3603329356235	-10.9555942785239	-0.2	0.520909090909091	0.185714285714286	
1512153330098.36	1.09364748316349	4.04257610331783	10.2002209935186	-4.83260112104227	31.650204773693	-11.9727388321926	-0.204545454545455	0.519090909090909	0.186734693877551	
1512153330102.26	1.11779580723853	4.06716025015577	10.1514448639414	-1.36342978336616	29.2644154538058	-13.7690144347603	-0.202727272727273	0.52	0.187755102040816	
1512153330106.17	1.2277824564807	4.06692736966972	10.1747329125465	1.772458718376	27.8777421472112	-15.938192837284	-0.201818181818182	0.521818181818182	0.185714285714286	
1512153330110.08	1.42288700416968	4.09128473236941	10.1486351967942	3.31767913952431	25.0031217340127	-18.4428295561182	-0.202727272727273	0.521818181818182	0.185714285714286	
1512153330113.98	1.56597442750973	5.91975856810372	10.433781743845	4.07514013028329	20.8846301786159	-21.7969805811601	-0.205454545454545	0.521818181818182	0.187755102040816	
1512153330117.89	1.22876244071744	4.24848586192177	10.0911728439681	5.80215118921375	8.90001185463797	-47.5451598877253	-0.205454545454545	0.52	0.187755102040816	
1512153330121.8	0.952974242933179	3.76926142153192	9.82084579861525	0.212089077412513	3.00908748571684	-53.9464495193319	-0.205454545454545	0.52	0.187755102040816	
1512153330125.7	1.22882256686576	3.45753058203422	9.66862854356632	-2.56021814876534	3.04782172325546	-51.080719161031	-0.204545454545455	0.523636363636364	0.186734693877551	
1512153330129.61	1.77730541113943	3.43349144868981	9.66290332379014	-3.48432055749129	5.55817863260257	-44.8704257469345	-0.206363636363636	0.522727272727273	0.188775510204082	
1512153330133.51	2.14288048714744	3.42160295349536	9.64693356612689	-2.98439630359036	7.41483070286612	-41.3078477592224	-0.207272727272727	0.521818181818182	0.187755102040816	
1512153330137.42	2.15263828674996	3.14415738643855	9.68064689831396	-2.52991970913498	6.54952533763739	-40.3576079287099	-0.204545454545455	0.520909090909091	0.189795918367347	
1512153330141.33	2.08069524226389	3.31329578196777	9.63427722490923	-2.15118921375549	4.08570749072732	-36.7963938627636	-0.206363636363636	0.524545454545455	0.190816326530612	
1512153330145.23	1.93680342419381	3.57855900986606	9.61397853146648	-2.37842751098318	3.69805550796423	-34.6843392679143	-0.207272727272727	0.524545454545455	0.191836734693878	
1512153330149.14	1.75547631404836	3.73515172390774	9.61735772970835	-2.06029389486441	3.51129105829849	-33.8310825338196	-0.207272727272727	0.524545454545455	0.191836734693878	
1512153330153.05	1.65792881445214	3.7838176785247	9.5700393764456	-2.31783063172247	4.71495076594826	-33.1996159442081	-0.205454545454545	0.505454545454546	0.191836734693878	
1512153330156.95	1.71853626576445	3.78418955574065	9.53285165485098	-2.10574155430995	6.16455952969417	-33.1551921779226	-0.204545454545455	0.524545454545455	0.192857142857143	
1512153330160.86	1.85170653243942	3.82168516493428	9.39774856681275	-0.469625814270565	7.70962762563187	-32.2561326596518	-0.204545454545455	0.504545454545455	0.194897959183673	
1512153330164.76	1.9729309835606	3.9441181912998	9.20263870134568	2.77230722617785	10.5169893925741	-31.4925755543151	-0.205454545454545	0.526363636363636	0.193877551020408	
1512153330168.67	2.0565889315737	3.82414443163777	9.15182189646406	6.65050749886381	14.9162320407891	-33.3913121382624	-0.204545454545455	0.504545454545455	0.191836734693878	
1512153330172.58	2.05634465165176	3.78788150396978	9.16365683193781	9.63490380245417	19.3296028327039	-34.2588194902795	-0.205454545454545	0.523636363636364	0.194897959183673	
1512153330176.48	2.10463461585426	3.75186730729213	9.15061866837779	11.8921375549159	24.1610214996787	-33.1088911205322	-0.205454545454545	0.523636363636364	0.194897959183673	
1512153330180.39	2.1530462425929	3.72790011085179	9.13769975819479	13.4979548553249	29.4763668230288	-31.2400591026373	-0.206363636363636	0.505454545454546	0.194897959183673	
1512153330184.3	2.21328870629679	3.69213098735579	9.10015427646913	18.6638388123012	38.983783792859	-24.8096518707945	-0.208181818181818	0.525454545454546	0.195918367346939	
1512153330188.2	2.25084566090831	3.81284850144971	9.07659563816151	21.2846538403272	43.9900457718813	-21.681283544268	-0.21	0.527272727272727	0.193877551020408	
1512153330192.11	2.22779898360614	3.98186984710113	9.04193095253739	23.3297985153765	49.786956020821	-20.98143459862	-0.210909090909091	0.528181818181818	0.194897959183673	
1512153330196.01	2.1192656008501	4.04148424008142	9.10458804005085	25.6173307074686	54.1177222065954	-20.9255360930045	-0.208181818181818	0.506363636363636	0.201020408163265	
1512153330199.92	2.04755442324045	4.08868950976493	9.20333818013354	27.4352370852901	57.3564280481396	-20.9150614705011	-0.212727272727273	0.528181818181818	0.197959183673469	
1512153330203.83	2.0237739513228	4.13675314521902	9.21625174315847	27.2685956673231	58.3933823261009	-20.0844543595161	-0.212727272727273	0.528181818181818	0.197959183673469	
1512153330207.73	1.9264669122499	4.17300631873052	9.2053922233331	26.7838206332374	59.5582526436705	-19.1909043280689	-0.212727272727273	0.531818181818182	0.192857142857143	
1512153330211.64	1.89049443515721	4.24540658930178	9.19428082885852	25.1325556733828	60.7886797635627	-19.4613793008062	-0.220909090909091	0.532727272727273	0.189795918367347	
1512153330215.55	1.8894042465802	4.19782822313276	9.1328403373265	23.1025602181488	61.5716661304465	-20.6849842900387	-0.22	0.53	0.193877551020408	
1512153330219.45	1.87636251335147	4.16217371097545	9.08383372173234	20.9665202242084	61.6388715132143	-22.2513553060512	-0.22	0.533636363636364	0.189795918367347	
1512153330223.36	1.63345274190524	4.19768069151594	9.1475934990083	17.3155582487502	62.9881642944328	-25.2956360351373	-0.221818181818182	0.533636363636364	0.188775510204082	
1512153330227.26	1.53614856738131	4.27044064660753	9.10051365249958	12.5132555673383	63.1124199725621	-29.2012437842408	-0.226363636363636	0.534545454545455	0.191836734693878	
1512153330231.17	1.67028067614956	4.25828513137934	9.11124589821083	9.4682623844872	61.1647226327706	-33.9582755239098	-0.226363636363636	0.534545454545455	0.191836734693878	
1512153330235.08	1.80404493276041	4.17348183385911	9.1578407104744	6.15058324496288	58.792565998352	-36.9228940286761	-0.228181818181818	0.532727272727273	0.192857142857143	
1512153330238.98	1.83857082731456	4.12688254114716	8.99849287323589	1.56036964096349	55.4063705974049	-40.2919320140119	-0.232727272727273	0.533636363636364	0.190816326530612	
1512153330242.89	1.65894030872752	4.3669507681577	9.0880557143504	-5.93849416755037	54.1937108696095	-48.3384960095355	-0.230909090909091	0.535454545454545	0.189795918367347	
1512153330246.8	1.58431495934836	4.19804159530584	9.11150312001811	-11.5891531586123	53.3865228136189	-57.5673709191962	-0.232727272727273	0.533636363636364	0.188775510204082	
1512153330250.7	1.69210786354133	3.93228700177469	9.18093837674819	-17.0580215118921	50.0860088449851	-61.7220088524245	-0.233636363636364	0.536363636363636	0.193877551020408	
1512153330254.61	1.70394156505553	3.95699185629911	9.12009147852219	-22.451143766096	48.5016615551905	-63.3766351946771	-0.238181818181818	0.535454545454545	0.193877551020408	
1512153330258.51	1.78978275477162	3.96868161055521	9.15593533002125	-26.8444175124981	48.2982969764568	-67.2525366582135	-0.238181818181818	0.535454545454545	0.193877551020408	
1512153330262.42	1.80050335131707	3.65375384626993	9.32341055373002	-30.6014240266626	48.4932783586294	-69.4143832159887	-0.238181818181818	0.539090909090909	0.196938775510204	
1512153330266.33	1.89889675956835	3.61640333015399	9.44400433399854	-32.2223905468868	47.3443029885267	-67.4791605253015	-0.239090909090909	0.538181818181818	0.196938775510204	
1512153330270.23	1.85085489468642	3.73735616327308	9.39691379317367	-32.5556733828208	47.4611273696329	-64.1197549824135	-0.240909090909091	0.537272727272727	0.2	
1512153330274.14	1.81512669751567	3.84601936151232	9.37396746322533	-31.1013482805635	47.7534858999416	-61.8939744511213	-0.245454545454545	0.538181818181818	0.205102040816327	
1512153330278.05	1.60904199576479	3.90562400033613	9.43759996638718	-29.4652325405242	47.5955212957518	-58.1700103497833	-0.243636363636364	0.538181818181818	0.205102040816327	
1512153330281.95	1.40307895655006	3.97727563939725	9.50135172292603	-29.8591122557188	49.432735813271	-55.2544879523465	-0.246363636363636	0.540909090909091	0.207142857142857	
1512153330285.86	1.24528517385134	4.01303500873676	9.53987262030007	-32.5253749431904	52.6489507063839	-52.4368530321627	-0.246363636363636	0.540909090909091	0.207142857142857	
1512153330289.76	1.38882728190749	3.90633361522033	9.36663847796727	-33.8130586274807	55.7577773708168	-50.4407198869603	-0.246363636363636	0.542727272727273	0.206122448979592	
1512153330293.67	1.34052490465946	3.78415175838427	9.53663139048847	-31.222542039085	64.9372769335192	-43.172489940124	-0.249090909090909	0.540909090909091	0.21530612244898	
1512153330297.58	1.30454860816814	3.80787632018207	9.57381376492502	-27.7685199212241	68.1658373647641	-36.6774357106783	-0.250909090909091	0.520909090909091	0.214285714285714	
1512153330301.48	1.24381853947003	3.78328851553545	9.62295567537041	-26.2838963793365	71.220978553161	-32.8925266282391	-0.256363636363636	0.541818181818182	0.21734693877551	
1512153330305.39	1.28015409447184	3.72269139128942	9.65857171443159	-25.4203908498712	72.9760161609606	-30.3702609685084	-0.256363636363636	0.544545454545455	0.214285714285714	
1512153330309.3	1.31637180633613	3.69872297557952	9.64577473120463	-23.1783063172247	71.9937462442371	-28.2006524917468	-0.260909090909091	0.524545454545455	0.21734693877551	
1512153330313.2	1.32820073360206	3.66258319413714	9.64529504411755	-20.5271928495682	69.6860462401712	-27.2732152697522	-0.260909090909091	0.524545454545455	0.21734693877551	
1512153330317.11	1.26649927431411	3.56595724197872	9.66933604309128	-18.8001817906378	66.4510322809042	-26.0983610915042	-0.262727272727273	0.526363636363636	0.218367346938775	
1512153330321.01	1.43575890636964	3.48225494487161	9.60583081404356	-18.1639145584002	62.8916612398246	-26.2522522875071	-0.264545454545455	0.546363636363636	0.21530612244898	
1512153330324.92	1.45893106560657	3.37395630823095	9.59232098413356	-16.8004847750341	59.2272297150106	-25.8935181742586	-0.266363636363636	0.527272727272727	0.219387755102041	
1512153330328.83	1.53039891814394	3.30265703807281	9.49333233729685	-16.1490683229814	56.6613728986288	-24.2110134776197	-0.268181818181818	0.543636363636364	0.218367346938775	
1512153330332.73	1.66308157982468	3.27979571912383	9.36982567797836	-15.0431752764733	53.7970745698742	-22.5605895041502	-0.261818181818182	0.516363636363636	0.195918367346939	
1512153330336.64	1.71064825275791	3.25668201137583	9.27155789856179	-13.4070595364339	51.0530870878465	-20.0315800679756	-0.260909090909091	0.516363636363636	0.196938775510204	
1512153330340.55	1.68504761704639	3.18488527923701	9.22231544979264	-11.9981820936222	48.1109397295073	-16.7200471551777	-0.260909090909091	0.516363636363636	0.196938775510204	
1512153330344.45	1.69615229819339	3.14947705953092	9.14867958907679	-11.558854718982	45.0914531236893	-13.9016314929743	-0.264545454545455	0.519090909090909	0.196938775510204	
1512153330348.36	1.7317674264749	3.13828720579462	9.06284568559808	-9.74094834116043	43.708936136228	-11.8916408118741	-0.265454545454545	0.54	0.202040816326531	
1512153330352.26	1.69542709722481	3.13803969407384	9.08759685767581	-7.0292379942433	43.01690434288	-9.63806985744333	-0.268181818181818	0.539090909090909	0.196938775510204	
1512153330356.17	1.65835870245718	3.08984803531591	9.0874856250359	-4.22663232843509	43.1844419739773	-7.57712578453722	-0.271818181818182	0.539090909090909	0.198979591836735	
1512153330360.08	1.56068094667792	3.0169466449553	9.14870899844619	-0.696864111498258	43.5036293737044	-6.05907635092818	-0.27	0.540909090909091	0.2	
1512153330363.98	1.47446904025546	2.89610232682709	9.18494804018279	3.99939403120739	44.5052028180494	-5.33778517191085	-0.274545454545455	0.541818181818182	0.198979591836735	
1512153330367.89	1.45007548140882	2.82308632512779	9.25763254746158	8.28662323890319	44.8262118371497	-6.43682040020353	-0.274545454545455	0.541818181818182	0.198979591836735	
1512153330371.8	1.40141480049995	2.74994595793333	9.34275360425726	12.2102711710347	45.0291774619748	-8.21774775964003	-0.280909090909091	0.547272727272727	0.216326530612245	
1512153330375.7	0.81244650710042	2.25461922674802	9.47783636134282	15.8309347068626	44.4936105527516	-10.0340405082958	-0.275454545454545	0.522727272727273	0.195918367346939	
1512153330379.61	0.906732989462161	2.18490744555762	9.22009881773169	20.8756249053174	45.926237637195	-12.2810203040456	-0.278181818181818	0.540909090909091	0.196938775510204	
1512153330383.51	1.2030167706882	2.2907992440859	9.47429245888032	33.8585062869262	52.6026144648603	-13.0727601469349	-0.276363636363636	0.540909090909091	0.197959183673469	
1512153330387.42	1.32823698850899	2.56740473441554	9.52458679941029	39.1910316618694	51.5860813169746	-16.4731610275452	-0.28	0.543636363636364	0.193877551020408	
1512153330391.33	1.2814050650409	2.72364507955423	9.56320288795001	41.690652931374	45.5680218442869	-16.697399810476	-0.281818181818182	0.541818181818182	0.193877551020408	
1512153330395.23	1.16200650681152	2.7940859839418	9.74802811184447	36.7823057112559	43.7567634762356	-14.0207119187939	-0.281818181818182	0.541818181818182	0.193877551020408	
1512153330399.14	0.762281982053658	3.03474189888049	9.77882216014388	30.4802302681412	42.2271960466883	-9.53220168570285	-0.285454545454545	0.539090909090909	0.188775510204082	
1512153330403.05	0.42159093443549	3.21651010549694	9.67429065512525	18.3002575367369	43.067006154759	-2.18547181286491	-0.286363636363636	0.541818181818182	0.185714285714286	
1512153330406.95	0.38428303399419	3.19290015503782	9.62564714682019	4.71140736252083	45.2073513557498	4.658755339721	-0.29	0.542727272727273	0.187755102040816	
1512153330410.86	0.479636788541202	2.87871248737575	9.71911270820786	-7.6200575670353	46.4524505229655	9.04247112614038	-0.289090909090909	0.541818181818182	0.188775510204082	
1512153330414.76	0.525980152165411	2.64994628690107	9.70416649061565	-13.3161642175428	46.9359926021811	11.0784209745086	-0.290909090909091	0.522727272727273	0.188775510204082	
1512153330418.67	-0.0546950369336096	3.22936304291373	9.59381619055457	-13.2101196788365	45.4001414649432	12.283013562087	-0.291818181818182	0.542727272727273	0.186734693877551	
1512153330422.58	0.35841520196899	2.79278624259032	9.87800224699158	-4.5144675049235	40.5529736509085	32.7999994952317	-0.291818181818182	0.542727272727273	0.186734693877551	
1512153330426.48	0.180769448566482	2.15476586806302	9.82461801297545	-7.48371458869868	64.5447218892547	31.6436429408812	-0.292727272727273	0.544545454545455	0.187755102040816	
1512153330430.39	0.440461936672898	2.13896473684899	10.1999118572701	-13.5131040751401	77.2119578225379	26.861866948563	-0.296363636363636	0.544545454545455	0.189795918367347	
1512153330434.3	0.840193145378351	1.98349131226383	10.0846037133762	-16.5126495985457	83.5477536215373	25.7450312274337	-0.300909090909091	0.546363636363636	0.188775510204082	
1512153330438.2	1.26335511598752	1.93851608660643	9.7628491706818	-19.9818209362218	78.5554188325211	30.6060845612476	-0.304545454545455	0.545454545454545	0.191836734693878	
1512153330442.11	1.52944468546792	1.89206188697218	9.58899202567358	-22.3753976670201	72.7080965065074	36.4721041118646	-0.308181818181818	0.524545454545455	0.189795918367347	
1512153330446.01	1.66260635849599	1.82003715142556	9.56254991768539	-24.3750946826238	68.9773531864382	39.550925377727	-0.31	0.546363636363636	0.193877551020408	
1512153330449.92	1.68566258429471	1.77270507770776	9.47648018103169	-25.7233752461748	65.77788542053	38.6502713182168	-0.31	0.546363636363636	0.193877551020408	
1512153330453.83	1.69676631059206	1.7251279308083	9.41491776254363	-27.4049386456597	61.4774692058145	38.0996836673879	-0.319090909090909	0.549090909090909	0.208163265306122	
1512153330457.73	1.70847071077287	1.64043436754852	9.45053914876288	-28.69262232995	60.6302354648276	39.0824245706198	-0.328181818181818	0.553636363636364	0.220408163265306	
1512153330461.64	1.60910877648072	1.64225351773275	9.26862413033935	-29.5409786396001	58.4325468494749	42.9889723081347	-0.328181818181818	0.553636363636364	0.220408163265306	
1512153330465.55	1.75239801096802	1.38976885180807	9.21588590353035	-30.8438115437055	56.3068419974426	47.9522978199857	-0.33	0.556363636363636	0.222448979591837	
1512153330469.45	1.84607140640076	1.19897743346429	9.01791930417307	-32.2223905468868	53.7523150773774	51.5014716993006	-0.333636363636364	0.554545454545455	0.225510204081633	
1512153330473.36	2.15462450624397	0.708618006468373	8.65627164231932	-33.8282078472959	52.338497877186	55.6366581251856	-0.335454545454545	0.556363636363636	0.227551020408163	
1512153330477.26	2.31303137587169	0.793938274282242	8.55797980069142	-32.2526889865172	54.9281151987378	69.3749548787293	-0.335454545454545	0.556363636363636	0.227551020408163	
1512153330481.17	1.61091225244061	-0.0265465097805513	8.6787473635973	-35.8885017421603	51.4719884989072	76.8775849401542	-0.337272727272727	0.556363636363636	0.226530612244898	
1512153330485.08	0.150225042037087	-0.978404621606072	8.68383565458308	-44.5235570368126	43.0824175017631	92.9642053828371	-0.339090909090909	0.556363636363636	0.231632653061225	
1512153330488.98	0.431140253633165	0.225834518231489	8.74184938167037	-54.7947280715043	44.3975274101936	114.997913712702	-0.342727272727273	0.558181818181818	0.23265306122449	
1512153330492.89	0.898938948351746	1.31654801282262	9.30905413942519	-53.0677170125738	41.6990372938915	112.901722811226	-0.343636363636364	0.534545454545455	0.233673469387755	
1512153330496.8	1.26468576508785	1.97368167166999	9.86074849565119	-49.7803363126799	37.2020456457298	101.148215380346	-0.347272727272727	0.557272727272727	0.236734693877551	
1512153330500.7	1.69787984157065	2.08895148936769	10.3819594969658	-46.583850931677	29.5019177475659	88.9393223075774	-0.346363636363636	0.556363636363636	0.236734693877551	
1512153330504.61	2.1996323730696	1.97765223033869	10.6685119058898	-38.0396909559158	20.5765611272975	78.3373048829039	-0.346363636363636	0.556363636363636	0.236734693877551	
1512153330508.51	2.43780398955383	1.55749473089648	10.5155871513159	-22.0724132707166	12.045638218638	67.2450869173146	-0.348181818181818	0.558181818181818	0.236734693877551	
1512153330512.42	2.51806684475079	1.24623209091	10.3165499451445	-6.33237388274504	5.84878719772513	63.9297557508728	-0.349090909090909	0.56	0.238775510204082	
1512153330516.33	2.7695330680326	1.00751237603335	10.092135890641	2.06029389486441	1.4502115127496	63.5083101755897	-0.35	0.559090909090909	0.238775510204082	
1512153330520.23	2.97379665113995	0.815878442423281	9.97842081791283	3.90849871231631	-0.940668256015761	64.5056490264304	-0.350909090909091	0.558181818181818	0.239795918367347	
1512153330524.14	3.11806491501432	0.732783341557287	9.85419596475323	3.59036509619754	-0.3660263252261	65.2966136243458	-0.347272727272727	0.557272727272727	0.238775510204082	
1512153330528.05	3.16538730802561	0.673406706141293	9.76776312081042	3.04499318285108	0.96018389702147	66.5096201351985	-0.350909090909091	0.557272727272727	0.237755102040816	
1512153330531.95	3.16441400773647	0.577030704242779	9.76680909379433	4.22663232843509	3.38808137489126	68.106364689611	-0.350909090909091	0.557272727272727	0.237755102040816	
1512153330535.86	3.18843207562847	0.480047506103147	9.82657469089011	5.93849416755037	5.61558698776435	70.7527637817629	-0.351818181818182	0.558181818181818	0.241836734693878	
1512153330539.76	3.24975899881142	0.418843185615995	9.92291035406317	7.74125132555673	7.55964915543098	73.9351948712774	-0.352727272727273	0.558181818181818	0.238775510204082	
1512153330543.67	3.39741662640401	0.45402340191428	10.01934655556	8.42296621723981	8.92508897007326	76.9515003728941	-0.349090909090909	0.56	0.235714285714286	
1512153330547.58	3.5336103143391	0.561484400366889	10.1166202042749	8.90774125132555	9.50052289148182	78.955242858343	-0.351818181818182	0.558181818181818	0.238775510204082	
1512153330551.48	3.68139151416714	0.633049471289213	10.1890287746932	9.49856082411756	9.37313920441591	80.5987086063071	-0.351818181818182	0.56	0.239795918367347	
1512153330555.39	3.8161319356161	0.681128957247587	10.2003572872895	10.9528859263748	8.96288951268456	80.878211389513	-0.353636363636364	0.559090909090909	0.238775510204082	
1512153330559.3	3.88905400948925	0.681380126777046	10.1752403343436	12.6950462051204	8.19251553719363	80.2733462656838	-0.353636363636364	0.559090909090909	0.238775510204082	
1512153330563.2	3.92442294814951	0.609589490986034	10.1253882507942	14.7401908801697	6.32512271299243	78.9897131085366	-0.351818181818182	0.560909090909091	0.239795918367347	
1512153330567.11	3.97210746422026	0.549847074701896	10.0755334936658	16.4217542796546	4.66174066011069	77.6924154702575	-0.352727272727273	0.561818181818182	0.235714285714286	
1512153330571.01	3.98284620290918	0.466128927090497	10.0136133150467	18.0730192395092	3.32651946631547	77.3535309367629	-0.35	0.56	0.238775510204082	
1512153330574.92	4.04296891377623	0.442650657743911	9.95180169548846	18.6941372519315	2.91408679317473	77.1072811045817	-0.35	0.560909090909091	0.239795918367347	
1512153330578.83	4.10248044741359	0.322430605630667	9.92561413572851	19.0577185274958	3.18583384556872	77.7571158267958	-0.353636363636364	0.558181818181818	0.237755102040816	
1512153330582.73	4.06249310662817	-0.00272013162945076	9.91056737981255	18.7850325708226	3.78886997585522	79.2187901977897	-0.353636363636364	0.560909090909091	0.23469387755102	
1512153330586.64	4.284184958213	0.36017494581464	9.7656379486565	12.7101954249356	1.35773568558287	81.9591223064746	-0.353636363636364	0.560909090909091	0.23469387755102	
1512153330590.55	4.5428111289838	0.601018628265646	9.77765524572453	8.75624905317376	3.04952221237373	81.9970040910985	-0.356363636363636	0.560909090909091	0.233673469387755	
1512153330594.45	4.66548025294421	0.673312822385136	9.77715149642612	15.2249659142554	8.64696372727806	84.1958908058279	-0.355454545454545	0.537272727272727	0.236734693877551	
1512153330598.36	4.6895050047838	0.661512114599039	9.75240299792742	19.1637630662021	12.8614146133713	84.6637250277213	-0.356363636363636	0.564545454545455	0.231632653061225	
1512153330602.26	4.73803924890824	0.661760845589377	9.72752989889364	21.5876382366308	16.6279367575412	84.3576580757869	-0.359090909090909	0.562727272727273	0.236734693877551	
1512153330606.17	4.78656776393475	0.588996013419542	9.77509745322656	22.3299500075746	18.6085754211917	84.2083470820468	-0.357272727272727	0.558181818181818	0.23265306122449	
1512153330610.08	4.77388624406617	0.528637866007362	9.78681580890234	21.5573397970004	19.6091202507074	83.6872214059322	-0.358181818181818	0.559090909090909	0.23265306122449	
1512153330613.98	4.7119424145556	0.420086840567684	9.79854485889427	20.2696561127102	19.6207262844629	83.6236812515662	-0.358181818181818	0.559090909090909	0.23265306122449	
1512153330617.89	4.57634940050397	0.275509425754748	9.79845501488665	16.6489925768823	17.8819496298148	84.3945044036617	-0.359090909090909	0.559090909090909	0.228571428571429	
1512153330621.8	4.60220290978434	0.493089430301813	9.727201548132	13.7100439327375	18.6892883404755	84.7057640403077	-0.359090909090909	0.561818181818182	0.228571428571429	
1512153330625.7	4.64036435767795	0.625366236808854	9.75253294562058	15.2098166944402	19.5480472502085	85.9487741760579	-0.359090909090909	0.561818181818182	0.228571428571429	
1512153330629.61	4.689995474327	0.758375824321744	9.70458624252434	17.6639903044993	21.7824112567179	86.2223527095519	-0.359090909090909	0.56	0.231632653061225	
1512153330633.51	4.73902018799464	0.855488265034788	9.63189638808747	20.4514467504923	23.9843445255298	86.5844838391091	-0.361818181818182	0.56	0.229591836734694	
1512153330637.42	4.75024748652744	0.84429597275937	9.54630633852086	22.1330101499773	25.1126500197697	85.9612378893753	-0.364545454545455	0.559090909090909	0.226530612244898	
1512153330641.33	4.77366869993459	0.833104899753512	9.46059436199819	22.1027117103469	25.9757656318343	85.1135994780661	-0.364545454545455	0.559090909090909	0.226530612244898	
1512153330645.23	4.82123728256713	0.834329046392233	9.33817969812606	21.7997273140433	26.0080616468476	84.2617359361198	-0.363636363636364	0.562727272727273	0.227551020408163	
1512153330649.14	4.85649028778918	0.82350497352408	9.21576770783296	21.3603999394031	26.096281117972	83.8227016161011	-0.364545454545455	0.56	0.227551020408163	
1512153330653.05	4.89210637092034	0.824484046981145	9.11786036212646	21.6936827753371	25.9115415525391	83.2413291087737	-0.367272727272727	0.561818181818182	0.225510204081633	
1512153330656.95	4.90333844370142	0.874136390672538	8.97190310142093	21.2543554006969	26.2394707916899	83.2119227177801	-0.365454545454545	0.56	0.225510204081633	
1512153330660.86	4.89006006934799	0.899570368394133	8.83814388347827	21.4664444781094	26.6872594934099	83.3274054293829	-0.37	0.559090909090909	0.227551020408163	
1512153330664.76	4.85203078733673	0.913198761251389	8.6801238748611	21.0725647629147	26.9423196874025	82.7641667361469	-0.367272727272727	0.560909090909091	0.225510204081633	
1512153330668.67	4.80119832292075	0.854422006459151	8.5337029685427	20.7544311467959	27.6098985035043	82.0281833477821	-0.367272727272727	0.560909090909091	0.225510204081633	
1512153330672.58	4.73829551586587	0.832028887021392	8.3633763581018	18.8001817906378	26.4014625434082	80.8237351208286	-0.37	0.560909090909091	0.226530612244898	
1512153330676.48	4.63881000933826	0.797463182581588	8.20548897075682	16.3914558400242	25.0134000135031	79.6714084840406	-0.373636363636364	0.560909090909091	0.224489795918367	
1512153330680.39	4.5157873559653	0.835055114070502	8.06075365319081	13.3010149977276	22.3753283606698	78.1874148053905	-0.372727272727273	0.559090909090909	0.223469387755102	
1512153330684.3	4.3689794564264	0.859866045046692	7.98929910978864	11.1649750037873	19.6972712624599	76.7247973450592	-0.374545454545455	0.56	0.221428571428571	
1512153330688.2	4.25875521120988	0.909018488218288	7.89333190106277	9.07438266929253	17.4150846608214	75.0136037243793	-0.373636363636364	0.559090909090909	0.224489795918367	
1512153330692.11	4.17412873715592	0.993460881948612	7.88282746778939	8.01393728222996	15.6044275986145	73.4705155729221	-0.374545454545455	0.560909090909091	0.224489795918367	
1512153330696.01	4.10120952783173	1.02971649399924	7.87172409405192	7.21102863202545	13.7000815343312	72.0020898749884	-0.374545454545455	0.560909090909091	0.224489795918367	
1512153330699.92	4.07706693285462	1.07814591032147	7.84805957026247	5.87789728828965	11.6803069064402	69.8991928703066	-0.379090909090909	0.56	0.222448979591837	
1512153330703.83	4.05280076564205	1.09019047201967	7.84842267755158	4.62051204362975	9.23530934837941	68.1812952882926	-0.376363636363636	0.560909090909091	0.223469387755102	
1512153330707.73	4.0159756959467	1.06609281373635	7.8485499516657	3.06014240266626	6.82182326033848	66.3440309461473	-0.377272727272727	0.560909090909091	0.221428571428571	
1512153330711.64	4.02792724059843	1.05416895972465	7.83611607572785	1.68156339948493	3.75182583614965	63.4127804064381	-0.379090909090909	0.561818181818182	0.223469387755102	
1512153330715.55	4.01597760564601	1.09043066812308	7.82440306721014	-0.287835176488411	0.362747974028146	59.6665788134255	-0.378181818181818	0.559090909090909	0.223469387755102	
1512153330719.45	4.01694995108551	1.17463774282823	7.83743053645401	-2.60566580821088	-3.78654348234962	55.5499590225561	-0.376363636363636	0.560909090909091	0.222448979591837	
1512153330723.36	4.00524841545366	1.2958380876681	7.76558882355141	-4.12058778972883	-7.86826082798238	52.1266029680938	-0.376363636363636	0.560909090909091	0.222448979591837	
1512153330727.26	3.99463706839882	1.46461679867699	7.75518760218083	-5.71125587032268	-10.7313461349578	48.6307773095385	-0.378181818181818	0.560909090909091	0.224489795918367	
1512153330731.17	4.03267494405698	1.56050875055999	7.80454663074796	-6.9534918951674	-13.6731365942237	44.4608061902808	-0.378181818181818	0.561818181818182	0.228571428571429	
1512153330735.08	3.9968184004025	1.57194245820838	7.86599514301708	-6.78685047720042	-16.5559303535475	39.3147646006163	-0.377272727272727	0.560909090909091	0.227551020408163	
1512153330738.98	3.9720646281957	1.52363009176396	7.87795467902593	-6.10513558551734	-20.6678083655088	34.7099696348406	-0.375454545454545	0.558181818181818	0.226530612244898	
1512153330742.89	3.88573487863573	1.43941448217188	7.86578069847439	-5.89304650810483	-24.3663574742087	30.4719821063575	-0.379090909090909	0.563636363636364	0.227551020408163	
1512153330746.8	3.77538133208582	1.37916850755927	7.86628177419376	-6.24147856385396	-27.7542676124191	27.5946499690113	-0.375454545454545	0.561818181818182	0.227551020408163	
1512153330750.7	3.71416652294245	1.33073055635011	7.89079978667554	-6.66565671867899	-29.6991364552052	25.8328986565977	-0.375454545454545	0.561818181818182	0.227551020408163	
1512153330754.61	3.67770262145691	1.2940981900053	7.93957858983183	-7.58975912740494	-30.8236585908109	24.7088709389706	-0.374545454545455	0.562727272727273	0.228571428571429	
1512153330758.51	3.64111896713453	1.26975667780989	7.96409125515553	-8.71080139372822	-30.5478874264255	24.0458754583221	-0.372727272727273	0.561818181818182	0.228571428571429	
1512153330762.42	3.60562454653951	1.28082460459014	8.06211785423904	-10.468110892289	-30.193091179179	24.7008284101546	-0.369090909090909	0.563636363636364	0.229591836734694	
1512153330766.33	3.53403025721772	1.27923223854415	8.22135445883765	-12.3466141493713	-29.5803921269294	25.842740229099	-0.368181818181818	0.563636363636364	0.231632653061225	
1512153330770.23	3.41450908160255	1.32545721550104	8.41813387158289	-14.2705650658991	-29.5922882022596	27.3728571302705	-0.371818181818182	0.561818181818182	0.228571428571429	
1512153330774.14	3.33144894292395	1.37180777722265	8.60235480785518	-16.6944402363278	-30.7739646628592	27.2715709710123	-0.367272727272727	0.561818181818182	0.229591836734694	
1512153330778.05	3.28593907490928	1.45369336268465	8.84753120141434	-19.0577185274958	-32.115150171967	26.9423711408326	-0.367272727272727	0.561818181818182	0.229591836734694	
1512153330781.95	3.27701095151768	1.53558260595533	9.09234181410535	-19.8757763975155	-32.539802120106	26.9090176804913	-0.367272727272727	0.564545454545455	0.231632653061225	
1512153330785.86	3.27991366509131	1.60566992217035	9.31252585525372	-19.4212998030601	-32.2787465808136	27.0697244070708	-0.364545454545455	0.540909090909091	0.23469387755102	
1512153330789.76	3.30647709774576	1.6399844570807	9.49553019554457	-18.0730192395092	-31.7154318477389	27.35581217759	-0.364545454545455	0.564545454545455	0.23469387755102	
1512153330793.67	3.36829067107329	1.6269681375428	9.59234287222567	-17.0731707317073	-30.3497930244495	27.4542387936733	-0.366363636363636	0.562727272727273	0.23469387755102	
1512153330797.58	3.49131809869454	1.6502208420207	9.67671097865278	-16.7398878957734	-26.8247642086865	27.9192418209073	-0.362727272727273	0.56	0.23469387755102	
1512153330801.48	3.62630089036613	1.71022540126034	9.70035144023089	-16.2551128616876	-25.634777420986	28.2382182985234	-0.361818181818182	0.542727272727273	0.235714285714286	
1512153330805.39	3.72445670264306	1.72179444782995	9.7482660603787	-16.2096652022421	-24.1370441885134	29.0620967291891	-0.361818181818182	0.542727272727273	0.235714285714286	
1512153330809.3	3.79785969756285	1.69722005514849	9.79606677430756	-15.7854870474171	-22.797007775848	29.1360157005598	-0.36	0.563636363636364	0.237755102040816	
1512153330813.2	3.87259620613194	1.74431802911068	9.90554648652247	-15.3310104529617	-20.9656117251076	29.0978967879336	-0.360909090909091	0.562727272727273	0.238775510204082	
1512153330817.11	3.92306654748846	1.80346056477106	10.0153893060265	-14.7098924405393	-18.8027015147336	29.5126019047595	-0.360909090909091	0.562727272727273	0.238775510204082	
1512153330821.01	3.90013293907554	1.87500856591954	10.0895048538294	-14.1342220875625	-15.7953525416585	30.4534236266523	-0.359090909090909	0.565454545454545	0.236734693877551	
1512153330824.92	3.91317467230427	1.91066307807685	10.1385114694236	-13.4676564156946	-12.2985258423758	32.7618583737786	-0.358181818181818	0.564545454545455	0.237755102040816	
1512153330828.83	3.97462994197096	1.94668824818055	10.1504522903792	-11.8921375549159	-7.9457642169021	35.8766942931645	-0.356363636363636	0.563636363636364	0.240816326530612	
1512153330832.73	3.98730573274161	1.93403283243255	10.2111745880701	-9.2410240872595	-3.64629879066257	39.1796896487395	-0.356363636363636	0.564545454545455	0.241836734693878	
1512153330836.64	4.0605861102756	1.88524251232042	10.2709294908497	-7.58975912740494	-0.958589952332645	41.6542306295125	-0.356363636363636	0.564545454545455	0.241836734693878	
1512153330840.55	4.1094805677602	1.86078760805589	10.3067813630859	-6.37782154219058	0.975193924021962	43.2556133355438	-0.358181818181818	0.564545454545455	0.240816326530612	
1512153330844.45	4.18288451752964	1.84838214256779	10.342508634787	-6.16573246477806	1.21701281376321	43.8767418890174	-0.357272727272727	0.565454545454545	0.242857142857143	
1512153330848.36	4.26848142732379	1.8238089691559	10.3901874217598	-6.18088168459324	0.326897832585144	43.3516880149278	-0.358181818181818	0.559090909090909	0.241836734693878	
1512153330852.26	4.34140159149763	1.79972228429863	10.3892173532695	-5.36282381457355	-0.86857236651229	42.6382333880279	-0.354545454545455	0.564545454545455	0.246938775510204	
1512153330856.17	4.42687779360529	1.77527103784278	10.4247034446375	-3.83275261324042	-2.37321839710068	42.2564744819636	-0.357272727272727	0.564545454545455	0.243877551020408	
1512153330860.08	4.49967438554368	1.71479949836148	10.4477610072257	-2.37842751098318	-4.13131770626206	41.5117631014934	-0.354545454545455	0.565454545454545	0.243877551020408	
1512153330863.98	4.51162211079678	1.65419993557632	10.483620900199	-0.605968792607181	-5.27496952962442	41.551255591066	-0.354545454545455	0.565454545454545	0.243877551020408	
1512153330867.89	4.51101379811606	1.59396493438975	10.483024633314	0.287835176488411	-6.51768062709739	41.6005252208726	-0.358181818181818	0.565454545454545	0.238775510204082	
1512153330871.8	4.48626193560858	1.56999042233205	10.4708372848672	0.848356309650053	-7.95254450324333	41.1362028769001	-0.36	0.563636363636364	0.242857142857143	
1512153330875.7	4.48589981254912	1.57035620320019	10.4342591980529	1.24223602484472	-8.64805347491486	40.5135515363197	-0.356363636363636	0.542727272727273	0.243877551020408	
1512153330879.61	4.57174195711486	1.59421488464965	10.4580296073241	2.77230722617785	-9.32428649367613	39.8793455213489	-0.353636363636364	0.563636363636364	0.242857142857143	
1512153330883.51	4.64684058874341	1.64094707774369	10.6040874063534	5.30222693531283	-10.3685151653495	38.3232098073729	-0.355454545454545	0.565454545454545	0.241836734693878	
1512153330887.42	4.63573304304744	1.6398485158697	10.7139435937526	9.16527798818361	-12.4781150151027	36.6423150023461	-0.354545454545455	0.566363636363636	0.241836734693878	
1512153330891.33	4.53805815181715	1.60345390708918	10.7389466404796	13.5585517345857	-12.9479348301577	35.4127859414395	-0.354545454545455	0.566363636363636	0.241836734693878	
1512153330895.23	4.46404397966768	1.53128651700398	10.726769986349	16.9216785335555	-12.4451844887699	35.2215253082932	-0.354545454545455	0.562727272727273	0.241836734693878	
1512153330899.14	4.34113344033429	1.45923617679659	10.7028883444378	19.072867747311	-9.41249069472557	35.9021754145802	-0.353636363636364	0.559090909090909	0.239795918367347	
1512153330903.05	4.25480560047363	1.39935842159124	10.6665674794307	19.8606271777003	-5.98211295473326	37.2639311709093	-0.354545454545455	0.564545454545455	0.238775510204082	
1512153330906.95	4.20409384374414	1.34045973984295	10.5323392687171	20.254506892895	-2.49501626535346	38.9495224445563	-0.354545454545455	0.564545454545455	0.238775510204082	
1512153330910.86	4.18935551895699	1.22132971471677	10.3971490102503	21.8451749734889	1.72790597717917	40.9820320472002	-0.352727272727273	0.562727272727273	0.23469387755102	
1512153330914.76	4.21119798394325	1.09003442020592	10.2736664131431	24.223602484472	5.33839827589534	42.1124373706963	-0.353636363636364	0.561818181818182	0.236734693877551	
1512153330918.67	4.24511365611737	0.95886227192067	10.1378691934751	25.6476291470989	7.26757813467597	43.5896637367351	-0.353636363636364	0.561818181818182	0.236734693877551	
1512153330922.58	4.23049699386637	0.85177924703181	10.0027981883853	25.9809119830329	8.12493746700191	44.9511740707369	-0.353636363636364	0.563636363636364	0.235714285714286	
1512153330926.48	4.11857233769281	0.768780468461093	9.86894110569792	25.5870322678382	7.75459054077596	46.301712720487	-0.356363636363636	0.565454545454545	0.235714285714286	
1512153330930.39	3.93409155010418	0.733840448266223	9.74848529385967	24.5871837600364	6.91313972311727	46.9457933468868	-0.351818181818182	0.564545454545455	0.233673469387755	
1512153330934.3	3.73728945600713	0.613838645404304	9.70047280896714	23.8903196485381	5.67243937218127	47.071990294731	-0.357272727272727	0.562727272727273	0.23265306122449	
1512153330938.2	3.51597977932453	0.506125258152675	9.62843804015413	23.8297227692774	3.98249135705494	46.6622105307953	-0.355454545454545	0.562727272727273	0.23265306122449	
1512153330942.11	3.38087627996645	0.446242625869083	9.59260488297122	23.7085290107559	2.35262000195155	45.3673451709442	-0.353636363636364	0.561818181818182	0.23265306122449	
1512153330946.01	3.29491151801491	0.398168016988951	9.58078866255072	23.2692016361157	0.0600018622233515	43.9602071257064	-0.353636363636364	0.561818181818182	0.23265306122449	
1512153330949.92	3.2458925334452	0.37406913943608	9.58103786362088	22.7086805029541	-2.97727470300896	42.3023044373462	-0.353636363636364	0.560909090909091	0.23265306122449	
1512153330953.83	3.22150374884684	0.361897773703597	9.59335515976076	22.2693531283139	-6.01975405242667	40.4448594189771	-0.355454545454545	0.560909090909091	0.233673469387755	
1512153330957.73	3.17309021240888	0.361527115757211	9.63042095439934	22.2239054688683	-9.07405299856261	38.9650984537801	-0.355454545454545	0.562727272727273	0.227551020408163	
1512153330961.64	3.13699129853177	0.361035750124338	9.67955751768666	22.6480836236934	-11.4549443637148	38.2063960909955	-0.354545454545455	0.564545454545455	0.227551020408163	
1512153330965.55	3.11284392930638	0.348620530479759	9.71626020503612	23.7842751098318	-13.3780189832392	37.5428167306614	-0.350909090909091	0.563636363636364	0.228571428571429	
1512153330969.45	3.08857680724416	0.34849616498459	9.72869675455301	25.0113619148614	-13.959663500706	37.6279234248314	-0.352727272727273	0.562727272727273	0.227551020408163	
1512153330973.36	3.10016431913711	0.312600237454304	9.70383167625634	26.5565823360097	-13.5277802781161	38.3864218832819	-0.352727272727273	0.562727272727273	0.227551020408163	
1512153330977.26	3.18479556743935	0.289002479690791	9.65396889839081	27.8897136797455	-11.4485469547777	39.6036335029014	-0.352727272727273	0.563636363636364	0.225510204081633	
1512153330981.17	3.28186214598893	0.265162087284742	9.62836958477881	29.6621723981215	-8.00026889429432	41.5810308962909	-0.351818181818182	0.562727272727273	0.225510204081633	
1512153330985.08	3.34186223947018	0.217467890507479	9.57851215407135	31.5406756552037	-3.75813744985585	43.9461941509848	-0.351818181818182	0.561818181818182	0.223469387755102	
1512153330988.98	3.37675025708379	0.170502816927383	9.45574240364722	34.0705953643387	0.668325318809789	46.5929434652271	-0.351818181818182	0.561818181818182	0.219387755102041	
1512153330992.89	3.41103282656566	0.0998095237408026	9.29615605965468	36.1005908195728	4.44047745277467	48.6866082399074	-0.352727272727273	0.56	0.223469387755102	
1512153330996.8	3.39605404125519	-0.00690772027991465	9.1245069677505	38.0245417361006	7.69654130109987	50.3897295023001	-0.353636363636364	0.555454545454546	0.216326530612245	
1512153331000.7	3.36839564577545	-0.149645257326087	8.94042934706654	40.2211786093016	12.4364255923315	52.3347088656595	-0.353636363636364	0.555454545454546	0.216326530612245	
1512153331004.61	3.3899995599377	-0.244189916344761	8.75634103206644	40.4787153461597	13.3382795387784	52.7961807302289	-0.351818181818182	0.562727272727273	0.21734693877551	
1512153331008.51	3.39952835721278	-0.363195575975767	8.60871422408275	40.4938645659748	13.7969257635224	53.3560696642314	-0.355454545454545	0.561818181818182	0.214285714285714	
1512153331012.42	3.385399299956	-0.409921672722009	8.46204679027322	40.3423723678231	14.4730057690662	53.9001904884312	-0.355454545454545	0.559090909090909	0.212244897959184	
1512153331016.33	3.39577687043511	-0.481105112271903	8.35147508261195	40.6453567641266	14.6984663175932	54.520573672128	-0.352727272727273	0.559090909090909	0.212244897959184	
1512153331020.23	3.44310308284502	-0.491806038914448	8.21674846975801	39.9636418724436	15.0407679801491	55.0885946928673	-0.357272727272727	0.557272727272727	0.211224489795918	
1512153331024.14	3.49030572301948	-0.538891820181031	8.10604948798263	38.8425996061203	14.2685557825474	55.2753892854236	-0.358181818181818	0.560909090909091	0.208163265306122	
1512153331028.05	3.50153206670262	-0.562253039649811	8.03253288064379	37.55491592183	13.150618601741	55.0705427014605	-0.358181818181818	0.560909090909091	0.208163265306122	
1512153331031.95	3.5006852031979	-0.5857374053442	7.9713308958658	36.1763369186487	11.9818216162363	54.5924303175964	-0.355454545454545	0.558181818181818	0.208163265306122	
1512153331035.86	3.50092948311984	-0.54947447767621	7.95949596039204	35.6006665656719	10.9776333649145	54.2572446216311	-0.356363636363636	0.559090909090909	0.207142857142857	
1512153331039.76	3.48837153548671	-0.57344777046435	7.94718668498927	35.2219360702924	10.503732704025	54.2962913055423	-0.355454545454545	0.559090909090909	0.210204081632653	
1512153331043.67	3.4756928801671	-0.597299136296444	7.92268471398171	34.8583547947281	10.8366871986603	54.5560207383142	-0.355454545454545	0.560909090909091	0.204081632653061	
1512153331047.58	3.49910931932597	-0.669334845269112	7.89733994859795	34.3281321011968	11.5895144568263	54.8895187885019	-0.356363636363636	0.552727272727273	0.202040816326531	
1512153331051.48	3.52289265579259	-0.680891699143113	7.84820605888967	33.3737312528405	12.3445314681564	55.1204154194862	-0.36	0.559090909090909	0.204081632653061	
1512153331055.39	3.57167022498932	-0.656548967678147	7.82357146660991	32.2981366459627	13.1761105242223	55.2601972505628	-0.36	0.559090909090909	0.204081632653061	
1512153331059.3	3.55996105056022	-0.632700040385175	7.84831729152957	31.9194061505832	13.6737774220468	55.2590078865383	-0.358181818181818	0.557272727272727	0.201020408163265	
1512153331063.2	3.46374133551537	-0.585375282284738	7.93511858991956	31.9042569307681	12.4901608055075	54.7216288426281	-0.359090909090909	0.56	0.196938775510204	
1512153331067.11	3.31959473417714	-0.490233181181429	8.05946269645617	31.9042569307681	9.24185191787469	52.0530589786584	-0.357272727272727	0.559090909090909	0.2	
1512153331071.01	3.23484468788772	-0.442175642075144	8.07298589426135	32.0103014694743	4.04723385245399	47.8158323989553	-0.359090909090909	0.559090909090909	0.196938775510204	
1512153331074.92	3.27118310743849	-0.466265984741091	8.07238160663918	32.070898348735	-2.02546390635763	44.4118911461912	-0.362727272727273	0.557272727272727	0.193877551020408	
1512153331078.83	3.32031993514572	-0.478795815724355	8.12054542785715	32.3132858657779	-7.95611984352761	42.0271440425091	-0.360909090909091	0.558181818181818	0.193877551020408	
1512153331082.73	3.36945867255225	-0.466987792320894	8.14456236461956	32.9041054385699	-14.00737223522	39.9605824924744	-0.360909090909091	0.558181818181818	0.193877551020408	
1512153331086.64	3.44201671366663	-0.490708696310016	8.10701420931487	32.661717921527	-18.9568088735559	38.5475228612981	-0.359090909090909	0.56	0.192857142857143	
1512153331090.55	3.51602706641748	-0.467217014998265	8.16748463235657	32.070898348735	-22.2656129605205	37.9608514647505	-0.359090909090909	0.558181818181818	0.190816326530612	
1512153331094.45	3.52931403441782	-0.3831306479796	8.1925828702492	31.2982881381609	-24.7217004655967	37.4742921119818	-0.357272727272727	0.557272727272727	0.190816326530612	
1512153331098.36	3.5178462753617	-0.359525574598724	8.24171408637844	30.1317982123921	-27.3529759623346	36.5203576648792	-0.356363636363636	0.554545454545455	0.183673469387755	
1512153331102.26	3.50661993167856	-0.336164355129944	8.31523069371728	28.8289653082866	-28.4158770969739	35.2011186219308	-0.355454545454545	0.538181818181818	0.18469387755102	
1512153331106.17	3.49503051008629	-0.324606281986382	8.36424265646952	27.5715800636267	-30.1142391318982	34.5439677168845	-0.356363636363636	0.558181818181818	0.185714285714286	
1512153331110.08	3.42234985158612	-0.325101305427937	8.41374500062498	26.3899409180427	-30.0650489204709	34.0974866209979	-0.356363636363636	0.558181818181818	0.185714285714286	
1512153331113.98	3.350276550917	-0.277530254876282	8.47591705389329	25.9354643235873	-29.5436804882938	33.7000528620896	-0.355454545454545	0.555454545454546	0.186734693877551	
1512153331117.89	3.26745591791206	-0.255761401453488	8.70867026583073	24.6023329798515	-29.0512326404568	32.9607105745093	-0.353636363636364	0.558181818181818	0.185714285714286	
1512153331121.8	3.16109718321211	-0.17400383929534	8.96664898977493	22.5420390849871	-28.9893768538326	31.1647328008534	-0.353636363636364	0.555454545454546	0.180612244897959	
1512153331125.7	3.16691024915663	0.0635222106816024	9.3104295342494	20.3454022117861	-27.5249685644471	30.744769873812	-0.350909090909091	0.554545454545455	0.179591836734694	
1512153331129.61	3.16053226477575	0.33755382296907	9.61811167899657	20.0424178154825	-23.7152499965391	32.006818356909	-0.350909090909091	0.557272727272727	0.180612244897959	
1512153331133.51	3.20196141385143	0.576058946403077	9.86398487776454	21.2240569610665	-18.1858165137507	34.3355568599859	-0.346363636363636	0.557272727272727	0.189795918367347	
1512153331137.42	3.27779002069684	0.695073140921007	10.0107581970559	23.4812907135282	-11.4783933686809	37.4505493876075	-0.346363636363636	0.557272727272727	0.189795918367347	
1512153331141.33	3.36399619802136	0.742903895889044	10.046959808686	24.814422057264	-5.2820725571253	40.0152670742036	-0.35	0.555454545454546	0.18265306122449	
1512153331145.23	3.43618925152731	0.683041991187979	10.0090538932503	26.2535979397061	0.0755995237475454	42.3736681962795	-0.350909090909091	0.558181818181818	0.179591836734694	
1512153331149.14	3.51997268147517	0.623790940536715	9.91006257283452	27.1625511286169	4.18891011184055	43.9868058515051	-0.348181818181818	0.557272727272727	0.175510204081633	
1512153331153.05	3.56729698418578	0.588752159507446	9.79948284443614	27.7685199212241	6.93039071211031	45.5403907197005	-0.35	0.536363636363636	0.176530612244898	
1512153331156.95	3.59071724274327	0.565392159308226	9.72584431014126	28.2381457354946	8.6187394910027	46.8464471709305	-0.351818181818182	0.557272727272727	0.177551020408163	
1512153331160.86	3.59035702938312	0.590095794563094	9.66511933887131	28.1623996364187	9.36584232716369	47.8926864495844	-0.35	0.556363636363636	0.174489795918367	
1512153331164.76	3.51780280766737	0.662492407325665	9.65437372526488	28.1169519769732	9.90836634213642	48.7575462979626	-0.35	0.556363636363636	0.174489795918367	
1512153331168.67	3.44560975416142	0.722354312026729	9.6922796407006	27.4503863051053	9.92584394679053	49.2981436947342	-0.351818181818182	0.554545454545455	0.172448979591837	
1512153331172.58	3.38597273858929	0.78185165512921	9.76664171599467	26.7838206332374	9.94881411995368	50.1133695169576	-0.354545454545455	0.533636363636364	0.171428571428571	
1512153331176.48	3.30134149028704	0.805449412892723	9.8165044938602	26.4656870171186	9.15878020857914	50.5822567774607	-0.354545454545455	0.555454545454546	0.173469387755102	
1512153331180.39	3.20463894449624	0.853261878817353	9.85453500983101	26.6777760945311	8.03117185612845	51.4154620236217	-0.354545454545455	0.556363636363636	0.171428571428571	
1512153331184.3	3.14427386340656	0.864815074882672	9.90403468040744	27.4503863051053	6.9438363717116	52.2273991435966	-0.357272727272727	0.535454545454545	0.168367346938776	
1512153331188.2	2.57245804852392	0.486179829702576	10.4181616080557	28.0260566580821	5.52603687843019	53.3955945842442	-0.354545454545455	0.557272727272727	0.16734693877551	
1512153331192.11	2.52054398917783	0.48934505348158	10.1016392301552	24.723526738373	-1.94804967639111	53.869605217172	-0.354545454545455	0.557272727272727	0.16734693877551	
1512153331196.01	2.82710754958823	0.816229592056699	9.94330585457103	8.04423572186032	-12.2682090356485	47.348816873379	-0.356363636363636	0.535454545454545	0.166326530612245	
1512153331199.92	3.13439153671893	1.09370686012208	9.90642242152672	7.51401302832904	-22.296651496338	50.369099084207	-0.354545454545455	0.554545454545455	0.166326530612245	
1512153331203.83	3.29413191999594	1.2506994945796	9.86980957818486	16.1793667626117	-22.4813572621096	53.1837279776335	-0.354545454545455	0.555454545454546	0.16530612244898	
1512153331207.73	3.30596562151014	1.27540434910403	9.80896267995887	21.7088319951522	-22.1715775563574	55.2312412203	-0.356363636363636	0.556363636363636	0.16734693877551	
1512153331211.64	3.3046330627105	1.21590090965374	9.73521023944504	21.7845780942281	-23.3408639850127	55.4558192300356	-0.352727272727273	0.555454545454546	0.166326530612245	
1512153331215.55	3.2305010474235	1.18036222810468	9.67462056302632	18.9516739887896	-25.7027505778004	54.7905383868271	-0.352727272727273	0.553636363636364	0.168367346938776	
1512153331219.45	3.21782525665286	1.19301764385267	9.61389826533541	16.4672019391001	-27.5732961599817	53.3996310627643	-0.352727272727273	0.553636363636364	0.168367346938776	
1512153331223.36	3.23062843905758	1.26542279150216	9.60229916303664	15.9218300257537	-28.8340242436569	53.3719115042117	-0.352727272727273	0.553636363636364	0.166326530612245	
1512153331227.26	3.25635264700456	1.37360437826502	9.62751398072724	17.133767610968	-27.6574250016705	54.1568160031761	-0.35	0.555454545454546	0.166326530612245	
1512153331231.17	3.22074324782098	1.45780779516149	9.64090723083926	18.4971973943342	-25.9638494936049	56.1711108976141	-0.352727272727273	0.556363636363636	0.168367346938776	
1512153331235.08	3.20891527540471	1.50611650379723	9.62931347569856	19.4364490228753	-22.704151717521	57.5635789039494	-0.348181818181818	0.557272727272727	0.166326530612245	
1512153331238.98	3.24501323443217	1.49443894223674	9.59225035463902	19.3607029237994	-19.7155298454514	58.7857854125097	-0.348181818181818	0.533636363636364	0.162244897959184	
1512153331242.89	3.32952377504793	1.47096311142928	9.53019488116869	18.8607786698985	-17.7767993203305	59.7785696372994	-0.350909090909091	0.554545454545455	0.162244897959184	
1512153331246.8	3.43757432705802	1.41183642627318	9.41876701123605	18.6183911528556	-16.2509347955349	61.0933710643835	-0.350909090909091	0.554545454545455	0.162244897959184	
1512153331250.7	3.47246329952129	1.37704027988645	9.28392381858414	18.1184668989547	-16.3650157448643	61.3131537228556	-0.349090909090909	0.555454545454546	0.163265306122449	
1512153331254.61	3.4713769303429	1.37813762249088	9.17418955814099	17.1943644902288	-17.0527508151303	61.191930422077	-0.349090909090909	0.551818181818182	0.163265306122449	
1512153331258.51	3.4468750768553	1.46343960126134	9.07772662085382	16.4217542796546	-17.4847102590812	60.0442019693777	-0.35	0.551818181818182	0.161224489795918	
1512153331262.42	3.43517449607311	1.59680887329457	8.99381146572343	15.8460839266778	-17.6960563107931	58.4497525851261	-0.348181818181818	0.553636363636364	0.159183673469388	
1512153331266.33	3.43578662815245	1.70571958325459	8.94611396369736	16.2399636418724	-17.6570920906139	56.7362832942539	-0.348181818181818	0.554545454545455	0.158163265306122	
1512153331270.23	3.41128095526622	1.74234585325161	8.89794479532132	16.6944402363278	-16.5239013810928	55.7437547060608	-0.347272727272727	0.552727272727273	0.160204081632653	
1512153331274.14	3.41116406697835	1.7911434889811	8.83745833080539	16.8156339948493	-15.5413206672198	54.7713252323578	-0.347272727272727	0.552727272727273	0.160204081632653	
1512153331278.05	3.44677919525986	1.77995363524481	8.75162442732668	16.7853355552189	-13.7084683526109	53.7919079646289	-0.347272727272727	0.556363636363636	0.157142857142857	
1512153331281.95	3.44617470197777	1.76839434283168	8.70273439153049	16.5883956976216	-11.6820267639201	53.1479453141728	-0.345454545454545	0.554545454545455	0.154081632653061	
1512153331285.86	3.46971566822175	1.74491241567642	8.6412885528404	15.4067565520376	-9.96655110529525	52.66954117764	-0.349090909090909	0.556363636363636	0.152040816326531	
1512153331289.76	3.4692328374758	1.74540012350061	8.59251777042122	14.346311164975	-9.02693252031377	52.0450818125157	-0.346363636363636	0.553636363636364	0.154081632653061	
1512153331293.67	3.49301426424311	1.70950541523988	8.5675307651685	13.4222087562491	-8.54567421534545	50.9507768490057	-0.35	0.554545454545455	0.156122448979592	
1512153331297.58	3.45691630521565	1.72118297680037	8.60459388622804	13.1495227995758	-8.67318855194259	49.8407852612166	-0.348181818181818	0.533636363636364	0.154081632653061	
1512153331301.48	3.4569172600653	1.73335190399373	8.59252044400026	12.4981063475231	-9.24265107303915	48.0522920823841	-0.348181818181818	0.533636363636364	0.154081632653061	
1512153331305.39	3.39546199039861	1.69732673389004	8.58057962304467	11.6951976973186	-9.74866884568989	45.5016700693351	-0.346363636363636	0.554545454545455	0.152040816326531	
1512153331309.3	3.40765590527297	1.6973279531596	8.58045769608862	10.3317679139524	-10.6655747169779	41.4194833450026	-0.347272727272727	0.555454545454546	0.153061224489796	
1512153331313.2	3.45667393499302	1.7092579035191	8.59228193724624	8.83199515224966	-12.0244594895078	36.7784529510179	-0.346363636363636	0.555454545454546	0.151020408163265	
1512153331317.11	3.53056548975669	1.75720936617363	8.61641278022758	6.78685047720042	-13.8401141259937	32.1779643471548	-0.346363636363636	0.553636363636364	0.153061224489796	
1512153331321.01	3.604699414743	1.81708590210942	8.65285557219074	5.39312225420391	-15.775662444449	28.8540161542296	-0.342727272727273	0.556363636363636	0.157142857142857	
1512153331324.92	3.65480954273937	1.90093207302467	8.7019734204248	5.25677927586729	-16.7314111231813	26.5301285861368	-0.345454545454545	0.532727272727273	0.154081632653061	
1512153331328.83	3.64370677129168	1.96067814711749	8.75146239668509	6.3626723223754	-16.2283964203841	25.9951931787185	-0.345454545454545	0.532727272727273	0.154081632653061	
1512153331332.73	3.52273423888969	1.97185946596686	8.83814978885614	8.10483260112104	-14.4353714539752	26.9975339861174	-0.342727272727273	0.555454545454546	0.154081632653061	
1512153331336.64	3.47420285931422	2.00811751655661	8.82680256120657	10.210574155431	-12.296624773459	27.7180984124827	-0.344545454545455	0.555454545454546	0.153061224489796	
1512153331340.55	3.41335303777928	1.9958205660594	8.85167833381939	12.0284805332525	-9.25809103268957	28.524104437056	-0.345454545454545	0.555454545454546	0.153061224489796	
1512153331344.45	3.38908305116809	1.95918941898414	8.90033521001962	14.1342220875625	-5.86726541088932	29.3389693772284	-0.343636363636364	0.534545454545455	0.152040816326531	
1512153331348.36	3.33933600108083	1.88714639439411	8.87572200637216	15.4370549916679	-3.78510770410002	29.9155269180903	-0.345454545454545	0.553636363636364	0.151020408163265	
1512153331352.26	3.31325062492405	1.79149951569276	8.80185565963939	15.3916073322224	-2.51909563429458	29.1403119652731	-0.344545454545455	0.553636363636364	0.154081632653061	
1512153331356.17	3.31228114403353	1.7437992225677	8.75260786371217	15.2401151340706	-2.14745902461798	27.5815715313822	-0.344545454545455	0.553636363636364	0.154081632653061	
1512153331360.08	3.32471933882983	1.78006336950525	8.74065100128236	14.6947432207241	-2.77314630492777	25.3500347557009	-0.344545454545455	0.555454545454546	0.152040816326531	
1512153331363.98	3.37362048026201	1.84079095559425	8.69198877792405	13.7251931525526	-4.85713372689571	23.3051848109014	-0.343636363636364	0.554545454545455	0.146938775510204	
1512153331367.89	3.39788664747458	1.82874639389606	8.69162567063495	13.5737009544008	-6.92121628309489	21.8928830580634	-0.340909090909091	0.555454545454546	0.151020408163265	
1512153331371.8	3.39764618695126	1.84115917500152	8.65516683719758	14.6492955612786	-8.58255980485903	21.1662516108472	-0.346363636363636	0.555454545454546	0.148979591836735	
1512153331375.7	3.3848458690955	1.80526080893211	8.630545612813	16.0430237842751	-10.1443153060029	20.1760197823011	-0.341818181818182	0.555454545454546	0.148979591836735	
1512153331379.61	3.34887052745384	1.84115429792328	8.65565454502177	19.1031661869414	-11.3922924123174	19.5017101238439	-0.342727272727273	0.551818181818182	0.146938775510204	
1512153331383.51	3.32533529030779	1.93764978823872	8.64465973034516	21.7845780942281	-13.2273773657915	18.608156056198	-0.342727272727273	0.551818181818182	0.146938775510204	
1512153331387.42	3.36167657440753	1.95006622715286	8.60783511603965	21.8451749734889	-15.5102726043069	17.1654011670605	-0.345454545454545	0.555454545454546	0.145918367346939	
1512153331391.33	3.42179546587596	1.87791224903282	8.59431726539254	19.3910013634298	-18.551602880973	15.1297107000526	-0.34	0.551818181818182	0.145918367346939	
1512153331395.23	3.42094382812296	1.79358324737162	8.59348249175346	17.9215270413574	-22.4090693005755	12.9092123675029	-0.340909090909091	0.551818181818182	0.144897959183673	
1512153331399.14	3.35887929092589	1.68515414888799	8.5930188461406	17.5579457657931	-27.54192396316	9.21017092801365	-0.340909090909091	0.554545454545455	0.143877551020408	
1512153331403.05	3.30937747561024	1.66154297915931	8.54449726479159	16.8610816542948	-34.0123420391167	4.06286007828741	-0.338181818181818	0.555454545454546	0.140816326530612	
1512153331406.95	3.29840018609732	1.78201176226289	8.54581172551775	22.1178609301621	-48.056995847056	-7.93532862641476	-0.338181818181818	0.554545454545455	0.144897959183673	
1512153331410.86	3.27583920409007	1.98705218167021	8.52369749562946	25.4961369489471	-53.837942171536	-11.2990632540461	-0.338181818181818	0.554545454545455	0.144897959183673	
1512153331414.76	3.30168602942284	2.11944969586374	8.53695812446929	30.3893349492501	-55.9852484954357	-12.8067602297144	-0.333636363636364	0.550909090909091	0.142857142857143	
1512153331418.67	3.32644075647929	2.17993098950153	8.51292514623266	36.3429783366157	-55.9854585083593	-12.9273353081559	-0.331818181818182	0.550909090909091	0.142857142857143	
1512153331422.58	3.35264493062325	2.2511180868601	8.62313107302578	43.0692319345554	-54.8195410281762	-13.0062570189371	-0.329090909090909	0.553636363636364	0.137755102040816	
1512153331426.48	3.33044511682581	2.44362379820591	8.64966837217965	47.3110134828056	-52.2808734087521	-12.8298985318255	-0.326363636363636	0.550909090909091	0.136734693877551	
1512153331430.39	3.33203150404395	2.66107943725781	8.59085145494189	48.52295106802	-48.000776422586	-10.4431890896559	-0.323636363636364	0.550909090909091	0.13469387755102	
1512153331434.3	3.33421379089728	2.78057402398257	8.68958555355036	48.8562339039539	-40.7741305718113	-7.02420574261488	-0.322727272727273	0.550909090909091	0.13265306122449	
1512153331438.2	3.3839551118866	2.77960348541243	8.78663941056453	46.8716861081654	-33.8741491291554	-4.89115345616275	-0.322727272727273	0.550909090909091	0.13265306122449	
1512153331442.11	3.40821555000123	2.69454536055406	8.85871695664211	42.2511740645357	-28.5993174745777	-4.30254939147565	-0.321818181818182	0.551818181818182	0.128571428571429	
1512153331446.01	3.46820704983558	2.53733081903654	8.91752050598469	36.4490228753219	-25.6654617598772	-4.82323313900429	-0.321818181818182	0.552727272727273	0.129591836734694	
1512153331449.92	3.43088960089772	2.3920315966438	8.98961141995746	31.980003029844	-22.0553222839622	-7.1341926337979	-0.32	0.55	0.128571428571429	
1512153331453.83	3.38308055774186	2.40322023111054	9.07556725039222	29.4197848810786	-20.6025942249622	-9.09168174938125	-0.320909090909091	0.55	0.125510204081633	
1512153331457.73	3.30002901271016	2.55909113757241	9.15112720661448	27.9806089986366	-17.1459320810585	-9.84434554836089	-0.317272727272727	0.55	0.125510204081633	
1512153331461.64	3.18087950865101	2.72663960559477	9.26375028389627	29.5106801999697	-10.8264685264884	-7.96953706561319	-0.320909090909091	0.549090909090909	0.121428571428571	
1512153331465.55	3.0381861737989	2.88116321919232	9.4740395265515	32.6162702620815	-4.24644001676744	-3.85458186723263	-0.320909090909091	0.549090909090909	0.121428571428571	
1512153331469.45	2.91709484340973	2.91680431938446	9.52438733866219	33.9191031661869	3.7504321137999	-0.0257110707916279	-0.319090909090909	0.548181818181818	0.119387755102041	
1512153331473.36	2.8429570990248	2.80825207467522	9.53623831561016	35.9642478412362	12.8590334243421	4.19664434284552	-0.319090909090909	0.529090909090909	0.120408163265306	
1512153331477.26	2.8527263568232	2.67683363393876	9.42507034106384	37.4640206029389	19.5955844917645	6.84585442974883	-0.316363636363636	0.526363636363636	0.118367346938776	
1512153331481.17	2.93637666603905	2.45950845672983	9.47084107400447	37.7367065596122	21.1935275490258	7.39177502805752	-0.319090909090909	0.528181818181818	0.11734693877551	
1512153331485.08	2.98333120689294	2.32748403902181	9.42027079661397	36.1914861384639	20.4619089540844	5.53754051878305	-0.319090909090909	0.55	0.11530612244898	
1512153331488.98	3.05601186539312	2.32797906246337	9.37076845245851	34.7371610362066	17.9051023092341	3.53278688890176	-0.320909090909091	0.548181818181818	0.11530612244898	
1512153331492.89	3.04503075648158	2.3997721367935	9.4203766820958	32.1314952279957	11.7724558176383	1.97206990507853	-0.320909090909091	0.548181818181818	0.11530612244898	
1512153331496.8	3.03272186301867	2.47290640764016	9.33586526008036	29.1622481442206	7.07846252852175	1.16361151069971	-0.320909090909091	0.547272727272727	0.114285714285714	
1512153331500.7	2.91199265568896	2.50818172696416	9.42279115900543	28.0715043175276	3.18160714817192	1.79337457739245	-0.318181818181818	0.529090909090909	0.112244897959184	
1512153331504.61	2.80225410576736	2.59335324389165	9.33937440601539	26.1172549613695	-1.25155420546693	1.41470328543655	-0.322727272727273	0.546363636363636	0.110204081632653	
1512153331508.51	2.74080647489792	2.65467949133485	9.23084604723754	23.375246174822	-6.32785200930916	0.897739090543865	-0.316363636363636	0.548181818181818	0.11734693877551	
1512153331512.42	2.7282504369641	2.65504405293344	9.1943898873792	20.421148310862	-12.6377190559853	0.334190734156559	-0.32	0.526363636363636	0.111224489795918	
1512153331516.33	2.71423922284484	2.57168924765106	9.09613547585782	17.8457809422815	-21.7400411249187	-2.29586588283714	-0.317272727272727	0.526363636363636	0.110204081632653	
1512153331520.23	2.67680393076947	2.46301873379445	9.11981336754245	15.4825026511135	-33.7547391121639	-6.89800402025139	-0.317272727272727	0.526363636363636	0.110204081632653	
1512153331524.14	2.6405814446569	2.42614251353754	9.19297756190832	13.1495227995758	-48.0871147655556	-14.6971676481717	-0.319090909090909	0.547272727272727	0.107142857142857	
1512153331528.05	2.58010138497866	2.51083119971908	9.15784388351326	11.2558703226784	-63.0516012877824	-23.0132497710753	-0.315454545454545	0.548181818181818	0.107142857142857	
1512153331531.95	2.48388357963312	2.58249381220625	9.22049829744768	10.9983335858203	-75.3301862197965	-29.7244519604602	-0.312727272727273	0.543636363636364	0.107142857142857	
1512153331535.86	2.27827979892889	2.61727288881913	9.35704846748427	11.1195273443418	-84.754817425062	-34.7741003267222	-0.308181818181818	0.543636363636364	0.108163265306122	
1512153331539.76	2.1938947402479	2.70147142863736	9.37092942542048	12.1799727314043	-92.0143335419781	-37.5962848063609	-0.306363636363636	0.524545454545455	0.107142857142857	
1512153331543.67	2.18231104775357	2.7860430649411	9.34750073480602	12.6798969853053	-94.2948216247739	-39.4707422536816	-0.299090909090909	0.543636363636364	0.107142857142857	
1512153331547.58	2.18231104775357	2.7860430649411	9.34750073480602	10.9831843660051	-95.1716240609235	-39.3992265446043	-0.299090909090909	0.543636363636364	0.107142857142857	
1512153331551.48	2.21852589506889	2.72556786765111	9.37092407826241	8.7259506135434	-92.4207789096308	-38.809015397796	-0.298181818181818	0.544545454545455	0.104081632653061	
1512153331555.39	2.24242707467303	2.67738230524097	9.37020321084226	5.34767459475837	-89.1830053561599	-39.1280742828026	-0.294545454545455	0.54	0.105102040816327	
1512153331559.3	2.19425399875839	2.66459886618913	9.44372783891821	0.984699287986668	-87.1812534723007	-41.5460918364569	-0.289090909090909	0.543636363636364	0.106122448979592	
1512153331563.2	2.13497719654641	2.69939257403674	9.57881488548222	-2.40872595061354	-85.4264833885136	-45.0242879188169	-0.285454545454545	0.541818181818182	0.106122448979592	
1512153331567.11	2.0894682833814	2.7934470866921	9.8119178368136	-4.78715346159673	-82.1131185303022	-48.0093735962721	-0.281818181818182	0.523636363636364	0.102040816326531	
1512153331571.01	2.00895350946525	2.9710953814637	10.119377516281	-5.40827147401909	-75.5464366785156	-48.7402774263336	-0.280909090909091	0.541818181818182	0.109183673469388	
1512153331574.92	1.79454995185315	3.18499319193811	10.4163434567911	-3.86305105287078	-65.5165746889	-46.5517401381263	-0.280909090909091	0.541818181818182	0.109183673469388	
1512153331578.83	1.61515511954114	3.35180400187639	10.6027323424819	-0.984699287986668	-54.2402077620144	-41.5658647704889	-0.274545454545455	0.542727272727273	0.106122448979592	
1512153331582.73	1.41003703413182	3.42260215224517	10.7518329682543	3.6964096349038	-41.4160692609532	-34.690711232215	-0.271818181818182	0.540909090909091	0.105102040816327	
1512153331586.64	1.26419097668621	3.39776195879953	10.8262137586016	10.4529616724739	-29.2568117285197	-26.8377512140741	-0.269090909090909	0.542727272727273	0.107142857142857	
1512153331590.55	1.14115591026772	3.27715783677473	10.8384331899968	16.8459324344796	-18.3029443599967	-20.7850636362766	-0.269090909090909	0.520909090909091	0.106122448979592	
1512153331594.45	1.12593189018565	3.12200873789266	10.6906924757941	20.9665202242084	-9.96890037510439	-16.4383754049614	-0.27	0.519090909090909	0.104081632653061	
1512153331598.36	1.13497308246649	2.94264615011904	10.5546620965302	23.7842751098318	-3.47590949859166	-12.9605992978032	-0.267272727272727	0.540909090909091	0.106122448979592	
1512153331602.26	1.20462650030793	2.82450007552817	10.3210767845327	25.3597939706105	0.142727454238345	-10.2809675307448	-0.267272727272727	0.523636363636364	0.104081632653061	
1512153331606.17	1.2133122534769	2.73068575897622	10.0639542228599	25.6930768065445	1.58922605615136	-8.78800691387036	-0.267272727272727	0.523636363636364	0.104081632653061	
1512153331610.08	1.2847858351122	2.73240005197825	9.89252492265647	25.2083017724587	5.28096569880642	-5.79855969745033	-0.264545454545455	0.54	0.103061224489796	
1512153331613.98	1.28346091510981	2.77024803007487	9.72218494432038	24.2387517042872	7.89291768959379	-4.56364845038624	-0.269090909090909	0.520909090909091	0.104081632653061	
1512153331617.89	1.31835179727239	2.75978973807486	9.5631948672129	23.5267383729738	11.0932134566918	-3.10829321583977	-0.269090909090909	0.520909090909091	0.101020408163265	
1512153331621.8	1.42725589673479	2.80932990896669	9.42845488646378	23.1934555370398	13.9529025537284	-1.51597754397803	-0.267272727272727	0.538181818181818	0.0989795918367347	
1512153331625.7	1.47494232250486	2.77392534706927	9.35445324487979	23.0722617785184	15.8953993676259	-0.145513632673102	-0.268181818181818	0.54	0.101020408163265	
1512153331629.61	1.49896898404376	2.7864624936699	9.30555786192553	23.375246174822	16.6654049757657	-0.0799426018461792	-0.27	0.540909090909091	0.0989795918367347	
1512153331633.51	1.49848710814747	2.79911912868745	9.24471363727857	23.2995000757461	15.0847208999276	-1.20789226316739	-0.27	0.540909090909091	0.0989795918367347	
1512153331637.42	1.54665827436279	2.78756471335257	9.19533589365819	22.0875624905317	10.5716272850239	-3.66857266992098	-0.27	0.516363636363636	0.1	
1512153331641.33	1.57128942918379	2.81166115236632	9.19533054650012	20.6180881684593	3.90861101393569	-8.02796194070233	-0.271818181818182	0.538181818181818	0.0969387755102041	
1512153331645.23	1.66920573578705	2.84781190723475	9.19471289098277	19.1789122860173	-3.01290682876706	-12.9496960686119	-0.27	0.536363636363636	0.0948979591836735	
1512153331649.14	1.69419996851717	2.88371149257372	9.2192121884113	19.1183154067565	-8.62953479757403	-15.9907416135083	-0.268181818181818	0.518181818181818	0.0948979591836735	
1512153331653.05	1.73102408336286	2.89564022366367	9.23115835652496	20.2242084532647	-12.3132668704659	-18.2692513355594	-0.269090909090909	0.54	0.0948979591836735	
1512153331656.95	1.75565332848455	2.89539880829069	9.25529989382245	22.193607029238	-12.6823008184333	-18.7583207532419	-0.266363636363636	0.536363636363636	0.0938775510204082	
1512153331660.86	1.6830924228212	2.88261293069973	9.32906837581049	24.556885320406	-10.9500121416485	-17.3953392948884	-0.266363636363636	0.536363636363636	0.0938775510204082	
1512153331664.76	1.50029390404615	2.74861451557329	9.47589784026161	23.4055446144523	-12.0864277336669	-18.455934950282	-0.267272727272727	0.538181818181818	0.0908163265306122	
1512153331668.67	1.43871506214401	2.67620449084555	9.48798465038458	20.4514467504923	-13.4294350452076	-22.2585308144434	-0.267272727272727	0.516363636363636	0.0928571428571429	
1512153331672.58	1.48833472059718	2.6631869520381	9.58491925402173	17.9669747008029	-14.2383967272207	-24.5909253341384	-0.265454545454545	0.517272727272727	0.0938775510204082	
1512153331676.48	1.55220987309156	2.76978714618101	9.7682733337065	15.8309347068626	-15.5257974776838	-25.9758882409016	-0.262727272727273	0.537272727272727	0.0928571428571429	
1512153331680.39	1.58999964942915	2.78074046162257	9.87776106665852	14.5735494622027	-16.7385937461443	-27.0499198303179	-0.263636363636364	0.535454545454545	0.089795918367347	
1512153331684.3	1.63950050989515	2.79218270415789	9.93835609023531	13.7100439327375	-17.7595500578123	-27.5957021003546	-0.261818181818182	0.516363636363636	0.0928571428571429	
1512153331688.2	1.68888066267466	2.80374687364925	9.98675841820731	13.6948947129223	-18.6942592489647	-28.8070184101866	-0.261818181818182	0.516363636363636	0.0928571428571429	
1512153331692.11	1.76252602781709	2.79109755424906	10.046871081118	13.6342978336616	-19.8928004099111	-30.8850725356598	-0.262727272727273	0.537272727272727	0.0908163265306122	
1512153331696.01	1.81154023813851	2.75435179583512	10.1069890911867	14.3917588244205	-21.0561361938292	-33.1090009691718	-0.257272727272727	0.534545454545455	0.0918367346938776	
1512153331699.92	1.84860672320684	2.77820560020633	10.1312472082822	15.0583244962884	-21.9721221235688	-34.5867448254974	-0.258181818181818	0.535454545454545	0.0928571428571429	
1512153331703.83	1.89629123927759	2.7184631839222	10.0813924511538	15.952128465384	-21.9309326864591	-35.9389911428953	-0.257272727272727	0.536363636363636	0.0918367346938776	
1512153331707.73	1.93154042510101	2.65896340228059	10.0072742297718	15.8006362672322	-21.3745987468707	-36.751829427546	-0.256363636363636	0.533636363636364	0.0887755102040816	
1512153331711.64	1.97886186326265	2.58741783967124	9.93291482805677	14.9522799575822	-20.0858826801733	-37.5650228923529	-0.253636363636364	0.534545454545455	0.0887755102040816	
1512153331715.55	2.0142308019229	2.51562720388023	9.88306274450738	13.8615361308893	-18.8336655135476	-38.0091830248061	-0.253636363636364	0.534545454545455	0.0887755102040816	
1512153331719.45	2.04972426766827	2.49239034990662	9.79710958765165	12.6193001060445	-17.9139015426928	-38.1738203521832	-0.253636363636364	0.513636363636364	0.0918367346938776	
1512153331723.36	2.07350569443557	2.45649564164589	9.77212258239893	11.9981820936222	-16.8232286865956	-38.743142789068	-0.251818181818182	0.534545454545455	0.0877551020408163	
1512153331727.26	2.10948103607723	2.42060215265472	9.74701365019016	11.2710195424936	-16.3925832080186	-39.1827230173963	-0.248181818181818	0.534545454545455	0.0846938775510204	
1512153331731.17	2.12118830080701	2.37241537097503	9.74641470972607	10.8771398272989	-15.6890971497663	-39.7046654107521	-0.250909090909091	0.532727272727273	0.0887755102040816	
1512153331735.08	2.15619225185884	2.26448373447207	9.69620486604564	10.3166186941373	-15.446853519457	-40.2203289656488	-0.246363636363636	0.51	0.0877551020408163	
1512153331738.98	2.16753357413053	2.16798702488707	9.7073216076783	9.48341160430238	-15.0236705983312	-41.0860593358952	-0.245454545454545	0.513636363636364	0.0877551020408163	
1512153331742.89	2.21497381027934	2.07198168093494	9.66930178602363	8.18057870019694	-14.8644401523034	-42.2649178329076	-0.245454545454545	0.513636363636364	0.0877551020408163	
1512153331746.8	2.31167635607014	2.02416921501031	9.63127127005282	6.71110437812453	-15.2941752867547	-43.6498628663753	-0.246363636363636	0.531818181818182	0.0826530612244898	
1512153331750.7	2.36045106071791	2.01200516489519	9.64285700445641	5.07498863808514	-16.5133098686426	-46.0018994063424	-0.245454545454545	0.532727272727273	0.0887755102040816	
1512153331754.61	2.33629987209389	1.95091423647717	9.727853460717	4.19633388880473	-18.2426918820143	-48.0206839860682	-0.24	0.53	0.0887755102040816	
1512153331758.51	2.2882484587154	1.95017779766264	9.80149734216996	3.51461899712165	-20.1021105754875	-50.2690403901831	-0.242727272727273	0.530909090909091	0.086734693877551	
1512153331762.42	2.21629395603346	1.97328906687152	9.90000897549862	2.62081502802606	-21.2875775830959	-52.1099903936771	-0.239090909090909	0.509090909090909	0.0877551020408163	
1512153331766.33	2.10776057327742	2.03290345985181	9.96266606301209	2.07544311467959	-22.134230043949	-53.04220169274	-0.238181818181818	0.511818181818182	0.089795918367347	
1512153331770.23	1.99946956074401	2.10444292611336	10.0376350995074	1.24223602484472	-21.9176272201918	-53.4328004906102	-0.238181818181818	0.511818181818182	0.089795918367347	
1512153331774.14	1.91495997497791	2.14008768411419	10.0876171307499	0.196939857597334	-20.9762013870932	-53.1875988084804	-0.237272727272727	0.531818181818182	0.0928571428571429	
1512153331778.05	1.86581932787206	2.103941806324	10.0877470784431	-1.37857900318134	-19.9598399595779	-53.3193489097162	-0.235454545454545	0.51	0.0918367346938776	
1512153331781.95	1.82899425817671	2.07984414804069	10.0878743525572	-2.71171034691713	-19.4295110410554	-53.7080857259951	-0.233636363636364	0.531818181818182	0.089795918367347	
1512153331785.86	1.79204848079487	2.05586841671343	10.0758089310665	-3.39342523860021	-19.8909933386152	-53.9713371052396	-0.231818181818182	0.531818181818182	0.0918367346938776	
1512153331789.76	1.73083749105012	2.05610617427772	10.0520331746372	-3.06014240266626	-21.2911513454264	-54.3574331940619	-0.220909090909091	0.530909090909091	0.0969387755102041	
1512153331793.67	1.64548486117792	2.11694227535761	9.99251945219058	-2.96924708377518	-22.3056680363271	-54.1040340015534	-0.226363636363636	0.53	0.0959183673469388	
1512153331797.58	1.57244494416725	2.15331981436429	9.96922338284831	-2.5147704893198	-22.7126087114544	-53.387280610556	-0.226363636363636	0.53	0.0959183673469388	
1512153331801.48	1.53598772662929	2.20186993837301	9.93348809041012	-2.363278291168	-22.879496079932	-52.3952145575251	-0.225454545454545	0.529090909090909	0.0959183673469388	
1512153331805.39	1.52367405891811	2.21415957325286	9.90934387953359	-2.31783063172247	-22.4474444857533	-51.6064598689992	-0.224545454545455	0.531818181818182	0.0908163265306122	
1512153331809.3	1.53623391625055	2.26247072042772	9.8975062704808	-2.60566580821088	-21.2195004060064	-50.5476479258328	-0.223636363636364	0.510909090909091	0.0959183673469388	
1512153331813.2	1.53635939818531	2.32319342943848	9.84933175494668	-2.99954552340554	-18.375235024135	-48.9850924203754	-0.221818181818182	0.511818181818182	0.0928571428571429	
1512153331817.11	1.57501131562213	2.55233394566823	9.82684639703217	-2.31783063172247	-16.5539591675301	-48.6438778596757	-0.221818181818182	0.51	0.0948979591836735	
1512153331821.01	1.57780859910377	2.8172460239331	9.84166266693122	0.409028935009847	-13.1145427510939	-50.4909824018972	-0.220909090909091	0.531818181818182	0.0979591836734694	
1512153331824.92	1.56451494715584	2.6479771665609	9.90107852463307	3.01469474322072	-10.6314647767652	-50.0535438821459	-0.220909090909091	0.531818181818182	0.0979591836734694	
1512153331828.83	1.47624623581482	2.46836097071869	9.79040895222709	4.62051204362975	-6.94953699613774	-48.8245656943174	-0.220909090909091	0.531818181818182	0.0979591836734694	
1512153331832.73	1.41369791302216	2.34825065286589	9.75324796642283	4.37812452658688	-3.6153655414581	-45.0709573624745	-0.216363636363636	0.53	0.0979591836734694	
1512153331836.64	1.37663238280349	2.33656577568804	9.71691640709958	2.96924708377518	-1.6573392152829	-42.0244116164539	-0.216363636363636	0.508181818181818	0.101020408163265	
1512153331840.55	1.33920472952535	2.32524667937833	9.64400676096194	1.40887744281169	0.418664895154249	-39.3285150083026	-0.214545454545455	0.53	0.0989795918367347	
1512153331844.45	1.28994623928199	2.32572951012428	9.59572368636696	0.0454476594455385	1.31895922197093	-36.6686112594139	-0.216363636363636	0.508181818181818	0.0979591836734694	
1512153331848.36	1.32665824008809	2.44730051291054	9.48681617882579	-0.212089077412513	2.05658229563342	-34.6438073616038	-0.213636363636364	0.529090909090909	0.0979591836734694	
1512153331852.26	1.38860493414764	2.5923583199303	9.43886680215051	1.09074382669293	2.77249507027166	-32.9243335945244	-0.213636363636364	0.529090909090909	0.0979591836734694	
1512153331856.17	1.43762582841665	2.6407950518699	9.41447071662478	2.363278291168	3.53762641141335	-31.845976848033	-0.217272727272727	0.530909090909091	0.0979591836734694	
1512153331860.08	1.4365365946893	2.60538561289424	9.34095678286498	3.07529162248144	4.7489660790699	-31.1174612554834	-0.214545454545455	0.509090909090909	0.0989795918367347	
1512153331863.98	1.46044254854171	2.61804468645092	9.27986870430592	3.59036509619754	6.71479074244959	-30.5776433484063	-0.215454545454545	0.532727272727273	0.101020408163265	
1512153331867.89	1.47179150961066	2.61889939441281	9.19439790811631	3.59036509619754	7.93692232311672	-30.4372628024703	-0.217272727272727	0.508181818181818	0.103061224489796	
1512153331871.8	1.54411195475068	2.64409805310924	9.0841705926909	3.37827601878503	9.09888091700495	-30.3246800082408	-0.216363636363636	0.507272727272727	0.1	
1512153331875.7	1.78092717057387	3.41781162745205	8.82124689334927	4.55991516436903	11.150234569976	-31.348922037554	-0.214545454545455	0.529090909090909	0.0979591836734694	
1512153331879.61	1.76616210999636	2.95795164091173	9.02411301726037	11.6194515982427	12.9429117652399	-33.8790739617288	-0.214545454545455	0.529090909090909	0.0979591836734694	
1512153331883.51	1.66267128827258	2.64752420057418	8.74155584619619	13.3161642175428	12.6396481825578	-35.8463122824017	-0.213636363636364	0.530909090909091	0.0989795918367347	
1512153331887.42	1.56039327251162	2.40889105383632	8.50848497781325	13.0889259203151	13.1022044724994	-37.5272859414987	-0.210909090909091	0.510909090909091	0.1	
1512153331891.33	1.54747033727006	2.34877676033624	8.49581794227944	10.6196030904408	12.3937412586076	-38.6858026026542	-0.211818181818182	0.531818181818182	0.104081632653061	
1512153331895.23	1.57186007671808	2.37311705326209	8.47142720391178	6.1354340251477	11.2173824330428	-40.3230779890898	-0.215454545454545	0.529090909090909	0.102040816326531	
1512153331899.14	1.53540285918013	2.42166717727081	8.43569191147359	2.22693531283139	10.0812728674594	-41.2035032629413	-0.214545454545455	0.53	0.0989795918367347	
1512153331903.05	1.47564895532013	2.52996215610278	8.44956752225173	-0.242387517042872	8.96788831159389	-40.9998141411669	-0.210909090909091	0.529090909090909	0.102040816326531	
1512153331906.95	1.45356412011124	2.64933237733237	8.56073817037709	-2.25723375246175	8.74567443875486	-41.5420704285324	-0.210909090909091	0.529090909090909	0.102040816326531	
1512153331910.86	1.45574736181423	2.78099589125049	8.64739882675778	-2.46932282987426	9.79917724640073	-42.2219327575027	-0.213636363636364	0.509090909090909	0.102040816326531	
1512153331914.76	1.4452519481976	2.88880803933652	8.7095575121309	-2.74200878654749	10.5047839451463	-42.5772462469316	-0.212727272727273	0.530909090909091	0.104081632653061	
1512153331918.67	1.43390298712866	2.88795333137463	8.79502830832051	-3.1055900621118	12.3747750209684	-42.638090903457	-0.213636363636364	0.53	0.102040816326531	
1512153331922.58	1.48255793893959	2.88808013540892	8.78234790489152	-4.37812452658688	15.8517080363254	-42.2938904207833	-0.211818181818182	0.530909090909091	0.106122448979592	
1512153331926.48	1.48231747841627	2.90049291651437	8.74588907145415	-7.45341614906832	18.2610301820409	-42.2109297951443	-0.213636363636364	0.532727272727273	0.105102040816327	
1512153331930.39	1.49426902306799	2.88856906250267	8.7334551955163	-11.4679594000909	22.1054167701602	-41.8429837603328	-0.215454545454545	0.511818181818182	0.108163265306122	
1512153331934.3	1.55354868982894	2.89028213623514	8.56214782226894	-15.6491440690804	25.7429609242325	-41.8680677275321	-0.215454545454545	0.511818181818182	0.108163265306122	
1512153331938.2	1.56440622650503	2.78210420728097	8.5365672237102	-20.3151037721557	26.6316423184728	-42.2117995988006	-0.212727272727273	0.514545454545455	0.108163265306122	
1512153331942.11	1.55075236119696	2.63753898516364	8.5352581101421	-24.7841236176337	28.5273279314559	-43.0406366822348	-0.214545454545455	0.534545454545455	0.108163265306122	
1512153331946.01	1.54868791748115	2.48141568990275	8.48493703382178	-27.8594152401151	31.0448440972309	-43.72176730551	-0.213636363636364	0.515454545454546	0.110204081632653	
1512153331949.92	1.54747224696937	2.37311461472297	8.47167105782388	-28.5562793516134	31.5002456710179	-44.4518416164979	-0.214545454545455	0.514545454545455	0.111224489795918	
1512153331953.83	1.48649885319897	2.32443280960171	8.52057446151525	-28.8441145281018	30.853841869236	-44.5035399714123	-0.217272727272727	0.536363636363636	0.114285714285714	
1512153331957.73	1.46162246360638	2.25190451572661	8.54448818637486	-28.3138918345705	30.4615601327402	-43.7876906307919	-0.217272727272727	0.513636363636364	0.113265306122449	
1512153331961.64	1.40125260826842	2.20261307582512	8.6543550680902	-28.9047114073625	29.1329443123837	-41.8304526327279	-0.217272727272727	0.513636363636364	0.113265306122449	
1512153331965.55	1.37650074576094	2.17863856376742	8.64216771964348	-30.0106044538706	29.4925186032476	-39.8391652425162	-0.217272727272727	0.535454545454545	0.11530612244898	
1512153331969.45	1.34016232621016	2.20272890643337	8.64277200726565	-31.6770186335404	26.9912314295152	-37.6305417922356	-0.217272727272727	0.537272727272727	0.118367346938776	
1512153331973.36	1.31552066804295	2.04477426829263	8.77558521892933	-33.4040296924708	27.0946318937103	-34.8674721749195	-0.219090909090909	0.54	0.121428571428571	
1512153331977.26	1.37601505046602	2.14261949001153	8.62961726390765	-33.5706711104378	28.5419133291302	-32.0418839466795	-0.214545454545455	0.539090909090909	0.127551020408163	
1512153331981.17	1.40149593334071	2.22670707629975	8.65459357484422	-35.1310407514013	26.1820889788877	-29.6526133359297	-0.219090909090909	0.540909090909091	0.126530612244898	
1512153331985.08	1.42635800018846	2.11670146227442	8.81178148340135	-37.130737767005	25.1975235678811	-26.6317742215064	-0.22	0.54	0.125510204081633	
1512153331988.98	1.42732366168036	2.11572604662604	8.9093230482397	-37.2216330858961	25.8626982638004	-24.2874483444389	-0.22	0.54	0.125510204081633	
1512153331992.89	1.43915736319457	2.14043090115047	8.8484761500137	-36.0702923799424	26.1829065517895	-22.3641201902459	-0.221818181818182	0.54	0.126530612244898	
1512153331996.8	1.42695771922228	2.06741611872073	8.92103873033645	-33.2828359339494	22.7071330106624	-21.1211619391785	-0.219090909090909	0.540909090909091	0.129591836734694	
1512153332000.7	1.42683319213717	2.01886233690333	8.95713980364278	-29.9651567944251	19.3174509579161	-19.1671380797396	-0.223636363636364	0.522727272727273	0.13265306122449	
1512153332004.61	1.35354517580593	1.97030123946857	8.99397243868541	-26.6171792152704	15.4287730205354	-17.4525902246389	-0.223636363636364	0.520909090909091	0.133673469387755	
1512153332008.51	1.31684367834603	1.9825884358093	8.97007208172097	-23.4055446144523	12.8259529469101	-15.5664152843012	-0.225454545454545	0.54	0.13469387755102	
1512153332012.42	1.27989408156557	1.90993699570859	9.00630042914143	-22.2390546886835	9.91718361208696	-13.7940710801695	-0.227272727272727	0.521818181818182	0.136734693877551	
1512153332016.33	1.2812333243128	2.0546229255124	8.99553877406077	-23.6782305711256	8.10764329777781	-10.0686188640283	-0.227272727272727	0.521818181818182	0.136734693877551	
1512153332020.23	1.28329203893068	2.13773265761312	9.1183005037478	-26.1021057415543	7.90878129909321	-8.10434784820472	-0.224545454545455	0.543636363636364	0.135714285714286	
1512153332024.14	1.34595820486087	2.22121426692979	9.2038745118402	-28.950159066808	10.7339160620862	-6.41023799723799	-0.224545454545455	0.546363636363636	0.13469387755102	
1512153332028.05	1.43337432359923	2.30433253391743	9.32578275283489	-32.570822602636	13.2841082323792	-4.1868062883133	-0.224545454545455	0.524545454545455	0.138775510204082	
1512153332031.95	1.52139207107072	2.36250331173811	9.53280135630911	-35.8127556430844	17.1703974079487	-2.88087383867718	-0.227272727272727	0.523636363636364	0.140816326530612	
1512153332035.86	1.62099542073584	2.36044030764178	9.73910176594223	-37.2519315255264	21.0723472361383	-0.66225421051677	-0.227272727272727	0.523636363636364	0.142857142857143	
1512153332039.76	1.73243151706551	2.37091323087652	9.89662871957713	-37.1761854264505	24.8823012635749	1.57265652818453	-0.227272727272727	0.526363636363636	0.142857142857143	
1512153332043.67	1.79569740202951	2.4051094966395	10.0914599746046	-36.1005908195728	27.1829033650138	4.46885030656146	-0.227272727272727	0.526363636363636	0.142857142857143	
1512153332047.58	1.8704339105986	2.45220747060168	10.2009396868195	-34.767459475837	27.9621944740288	7.05721791783435	-0.23	0.528181818181818	0.142857142857143	
1512153332051.48	1.93333576280383	2.46243166284608	10.3833397394882	-35.4491743675201	28.5015300573857	9.75969466376364	-0.23	0.55	0.146938775510204	
1512153332055.39	1.98452939542962	2.50867370957681	10.5784121748488	-36.3884259960612	28.8917934478433	11.8253096796711	-0.229090909090909	0.548181818181818	0.145918367346939	
1512153332059.3	2.12071830911643	2.55529007206261	10.7360530347026	-37.388274503863	29.439604147548	13.2490273719593	-0.23	0.548181818181818	0.148979591836735	
1512153332063.2	2.28092911009387	2.55359894518223	10.9051657227411	-38.8728980457506	30.3162869621337	13.8960345985517	-0.233636363636364	0.53	0.147959183673469	
1512153332067.11	2.47627029890755	2.51686781800301	10.9638206093373	-36.8732010301469	32.7450395755942	14.4011168045348	-0.234545454545455	0.530909090909091	0.152040816326531	
1512153332071.01	2.56357143905736	2.67312157510688	11.0010955013605	-33.6312679896985	26.4558123855996	15.652404639972	-0.234545454545455	0.530909090909091	0.152040816326531	
1512153332074.92	2.57624245557973	2.59962152339207	11.1221850101903	-29.9651567944251	27.7538951788079	16.7930572216804	-0.235454545454545	0.552727272727273	0.155102040816327	
1512153332078.83	2.56428327213076	2.51419395985688	11.2312064239504	-24.4356915618846	27.3851729354208	18.099606361299	-0.234545454545455	0.53	0.155102040816327	
1512153332082.73	2.56294975848146	2.44252159321324	11.1695274256644	-16.3460081805787	27.177654419792	19.4857625853722	-0.240909090909091	0.552727272727273	0.151020408163265	
1512153332086.64	2.60954217627589	2.31086295637336	11.0823790614595	-5.22648083623693	27.3969487035854	22.1192078804597	-0.24	0.551818181818182	0.157142857142857	
1512153332090.55	2.63162796633443	2.20366166233713	10.9591349711064	7.40796848962278	27.1987930748745	25.4741673912221	-0.239090909090909	0.532727272727273	0.155102040816327	
1512153332094.45	2.65263025176356	2.13406449248542	10.6899362936267	19.7848810786244	26.3415446946925	28.9298543139134	-0.245454545454545	0.532727272727273	0.155102040816327	
1512153332098.36	2.58888344575292	2.12469378893336	10.4221873717245	29.7530677170126	25.3175808202792	32.1060919275677	-0.245454545454545	0.532727272727273	0.155102040816327	
1512153332102.26	2.51245702957301	2.07930279235584	10.1420099210425	35.782457203454	23.6338793289787	35.0536315377735	-0.242727272727273	0.552727272727273	0.154081632653061	
1512153332106.17	2.42347171091031	1.99776957579682	9.86159663718545	37.1004393273746	23.701824192432	36.7946936779409	-0.242727272727273	0.551818181818182	0.15	
1512153332110.08	2.32313552147936	1.89104379688918	9.69080103397361	35.1007423117709	23.636777822395	37.9445948886934	-0.245454545454545	0.53	0.146938775510204	
1512153332113.98	2.31974806746046	1.79710633411162	9.44599309486163	31.2073928192698	23.3681593020515	38.0014747549962	-0.248181818181818	0.552727272727273	0.146938775510204	
1512153332117.89	2.30549543796823	1.71399538274134	9.32335329213066	27.8897136797455	23.6728705619856	38.4588896466717	-0.248181818181818	0.551818181818182	0.146938775510204	
1512153332121.8	2.29221037966721	1.6542468701094	9.27410816978247	25.8142705650659	23.463785504215	38.5427756730932	-0.25	0.552727272727273	0.143877551020408	
1512153332125.7	2.20624657256532	1.61834118842263	9.25021850713418	24.2993485835479	21.6358804088679	38.2252196618536	-0.25	0.552727272727273	0.143877551020408	
1512153332129.61	2.15722854284527	1.60641123806313	9.23839426597657	24.1175579457658	19.7799950096842	38.7186621936257	-0.251818181818182	0.552727272727273	0.140816326530612	
1512153332133.51	2.09601659825087	1.59448006843406	9.226691951775	25.1628541130132	18.9289781673139	39.9070139219701	-0.252727272727273	0.553636363636364	0.145918367346939	
1512153332137.42	1.96176378179614	1.6067575106183	9.20376701045895	27.3897894258446	19.9170246759213	42.5759170566017	-0.253636363636364	0.555454545454546	0.139795918367347	
1512153332141.33	1.8036069211883	1.6307137336326	9.21778326324639	30.1620966520224	23.0780390145619	46.8962572729694	-0.253636363636364	0.553636363636364	0.139795918367347	
1512153332145.23	1.68166968214407	1.65503939532372	9.19485564835131	32.5405241630056	27.3805470475742	51.7584880518191	-0.255454545454545	0.533636363636364	0.136734693877551	
1512153332149.14	1.53522104111567	1.64297776385168	9.19619951844687	33.9645508256325	32.4651422851876	55.8899530307413	-0.253636363636364	0.555454545454546	0.133673469387755	
1512153332153.05	1.4373047345124	1.60682700898325	9.19681717396422	35.3431298288138	36.6351715891079	59.8021153529809	-0.253636363636364	0.555454545454546	0.133673469387755	
1512153332156.95	1.3653492769808	1.61776935099877	9.30740224952067	36.7217088319951	40.4855878689931	63.168107103187	-0.259090909090909	0.551818181818182	0.13265306122449	
1512153332160.86	1.32961344101281	1.62908113169111	9.38104345739459	36.5702166338433	42.3227716697697	66.203287422015	-0.26	0.551818181818182	0.131632653061225	
1512153332164.76	1.35400318046083	1.65342142461696	9.35665271902693	34.5856688380548	42.8575643321025	67.2554776332	-0.260909090909091	0.534545454545455	0.131632653061225	
1512153332168.67	1.46387198656548	1.68981725266704	9.33152774534394	34.8735040145432	43.9537454520154	68.1877690130408	-0.260909090909091	0.531818181818182	0.13265306122449	
1512153332172.58	1.63506962555239	1.6893466146167	9.37859155037845	36.6611119527344	45.0691564497245	69.2879926005779	-0.263636363636364	0.552727272727273	0.127551020408163	
1512153332176.48	1.78163610971831	1.6647795375526	9.42566070257102	39.1758824420542	45.3143886192625	69.6876777868689	-0.267272727272727	0.553636363636364	0.124489795918367	
1512153332180.39	1.89065327806995	1.61684636394149	9.39970095524896	41.2967732161794	44.9500434968466	70.2805197773227	-0.267272727272727	0.553636363636364	0.124489795918367	
1512153332184.3	1.96272753358873	1.58144424058319	9.32545545975287	42.4935615815785	44.7524877046658	71.033536760304	-0.272727272727273	0.555454545454546	0.121428571428571	
1512153332188.2	2.03504415933013	1.55796719050617	9.26352191323859	42.8116951976973	45.7473583638186	72.3175225423644	-0.273636363636364	0.552727272727273	0.118367346938776	
1512153332192.11	2.10736269477085	1.55882799481587	9.17744148226874	42.3117709437964	46.2446921008074	73.7825263202636	-0.277272727272727	0.553636363636364	0.119387755102041	
1512153332196.01	2.1673627882521	1.5111337980386	9.12758405156128	41.857294349341	46.8680649461208	75.3984170922277	-0.28	0.550909090909091	0.114285714285714	
1512153332199.92	2.27638186630305	1.48753847881421	9.07747741978365	42.448113922133	47.1509209099342	76.7173165340233	-0.283636363636364	0.551818181818182	0.114285714285714	
1512153332203.83	2.40954640388009	1.45202052484767	9.01481498511211	43.2661717921527	46.9672971052838	77.9775676458341	-0.285454545454545	0.551818181818182	0.111224489795918	
1512153332207.73	2.49454073009145	1.44022591340938	8.98945685183318	44.7507953340403	47.0709876110535	79.2740605163449	-0.287272727272727	0.549090909090909	0.108163265306122	
1512153332211.64	2.5678220624751	1.40360452049061	9.03713831238503	45.9172852598091	46.228063379984	80.1559156575056	-0.287272727272727	0.549090909090909	0.108163265306122	
1512153332215.55	2.60476879470659	1.43974917901123	9.03713029164792	46.5384032722315	44.9727017287501	80.2080386524166	-0.288181818181818	0.531818181818182	0.109183673469388	
1512153332219.45	2.64232097506983	1.49962205713834	9.07393886447922	45.2204211483109	43.425740772662	80.145126966171	-0.291818181818182	0.55	0.106122448979592	
1512153332223.36	2.70510880353617	1.59515066669232	9.15963212594864	44.387214058476	43.2857215532712	80.4448027665744	-0.293636363636364	0.548181818181818	0.102040816326531	
1512153332227.26	2.87752306788451	1.71515003101512	9.20788846475326	42.7207998788062	43.5751189919964	80.9621590777348	-0.295454545454545	0.551818181818182	0.0989795918367347	
1512153332231.17	3.00043456206755	1.79936929841587	9.21969666443665	41.6603544917437	44.1769034978252	81.1956484791612	-0.3	0.55	0.0969387755102041	
1512153332235.08	3.08615695379646	1.83551883401474	9.21920093587535	42.0845326465687	45.155914986522	80.9679739762862	-0.302727272727273	0.552727272727273	0.0979591836734694	
1512153332238.98	3.13420836717496	1.83625527282927	9.1455570544224	44.0236327829117	46.592794042984	81.2394179078436	-0.302727272727273	0.552727272727273	0.0979591836734694	
1512153332242.89	3.13275701038814	1.80121161472176	9.03546503384821	46.6898954703833	48.9252121069578	81.8913996643456	-0.306363636363636	0.55	0.0928571428571429	
1512153332246.8	3.10667449878033	1.7420715176005	8.9253783604321	49.5833964550826	51.9877375033388	83.6630617414474	-0.306363636363636	0.55	0.0928571428571429	
1512153332250.7	2.99487055029326	1.65895081207373	8.80371397334951	51.643690349947	55.4715715881637	86.0187298771854	-0.31	0.529090909090909	0.0887755102040816	
1512153332254.61	2.87063222640851	1.58824166838287	8.6457126797856	52.8101802757158	59.8971174508181	88.7096430306699	-0.312727272727273	0.529090909090909	0.0877551020408163	
1512153332258.51	2.7962597505982	1.56511576793926	8.54866416992951	53.0222693531283	64.5841808482702	91.6516479960785	-0.311818181818182	0.526363636363636	0.0887755102040816	
1512153332262.42	2.78358014042893	1.5290954749138	8.53623564114973	53.4009998485078	68.3907399101341	93.8683026542982	-0.32	0.528181818181818	0.0836734693877551	
1512153332266.33	2.7352863568278	1.51643396281801	8.59756757362088	53.8857748825935	69.7731834782114	96.0928778358945	-0.32	0.528181818181818	0.0836734693877551	
1512153332270.23	2.71077686454295	1.50438452404157	8.59769217415596	53.7494319042569	69.2810310454618	97.655701779781	-0.322727272727273	0.546363636363636	0.0806122448979592	
1512153332274.14	2.72297268911662	1.52872359769786	8.57342336274435	53.6433873655507	68.2415834292521	99.6509809039854	-0.327272727272727	0.526363636363636	0.0785714285714286	
1512153332278.05	2.7466362727464	1.52945759797327	8.50002333520349	53.3101045296167	65.9841524557032	101.599671500038	-0.330909090909091	0.55	0.0755102040816327	
1512153332281.95	2.78261447893703	1.53007089056219	8.43869407631137	53.4009998485078	63.2602384445932	102.816296208554	-0.335454545454545	0.546363636363636	0.073469387755102	
1512153332285.86	2.80627710771716	1.51863596364423	8.37736749099829	52.8707771549765	59.4670814827589	102.737448515713	-0.340909090909091	0.543636363636364	0.0724489795918367	
1512153332289.76	2.7932401487367	1.54382608745373	8.26799366426522	51.8103317679139	53.9015390505713	101.750755547881	-0.343636363636364	0.546363636363636	0.0693877551020408	
1512153332293.67	2.85349025123783	1.60540838150463	8.1338606447173	50.128768368429	48.0341822705643	100.025542781112	-0.343636363636364	0.546363636363636	0.0693877551020408	
1512153332297.58	2.93861387878258	1.70301218785055	8.01203422699312	48.2502651113468	42.2709250415884	97.2330453852095	-0.346363636363636	0.544545454545455	0.0683673469387755	
1512153332301.48	3.06201488765916	1.87192623778065	7.98809911350122	47.1292228450235	36.767812904404	93.1637764760171	-0.350909090909091	0.523636363636364	0.063265306122449	
1512153332305.39	3.14822392953264	1.95626377432877	7.98808039844796	47.7048931980003	31.2562902737698	87.9788911410186	-0.353636363636364	0.544545454545455	0.0612244897959184	
