"sep=	"
Shimmer_CE9F_Timestamp_Unix_CAL	Shimmer_CE9F_Accel_LN_X_CAL	Shimmer_CE9F_Accel_LN_Y_CAL	Shimmer_CE9F_Accel_LN_Z_CAL	Shimmer_CE9F_Gyro_X_CAL	Shimmer_CE9F_Gyro_Y_CAL	Shimmer_CE9F_Gyro_Z_CAL	Shimmer_CE9F_Mag_X_CAL	Shimmer_CE9F_Mag_Y_CAL	Shimmer_CE9F_Mag_Z_CAL	Shimmer_CE9F_Pressure_BMP180_CAL	Shimmer_CE9F_Temperature_BMP180_CAL	
ms	m/(s^2)	m/(s^2)	m/(s^2)	deg/s	deg/s	deg/s	local_flux	local_flux	local_flux	kPa	Degrees Celsius	
1512496026052.06	0.132530120481928	0.192771084337349	9.67469879518072	-9400.0	-1800.0	-2400.0	-0.402727272727273	0.470909090909091	0.0775510204081633	103.590354278313	22.5371317587715	
1512496026054.02	0.120481927710843	0.192771084337349	9.67469879518072	-8100.0	-2600.0	-1100.0	-0.400909090909091	0.452727272727273	0.0755102040816327	103.596265032526	22.5371317587715	
1512496026055.97	0.120481927710843	0.192771084337349	9.67469879518072	-8000.0	-2300.0	-1400.0	-0.400909090909091	0.452727272727273	0.0755102040816327	103.596265032526	22.5371317587715	
1512496026057.92	0.144578313253012	0.180722891566265	9.67469879518072	-8300.0	-2800.0	-2400.0	-0.400909090909091	0.470909090909091	0.0755102040816327	103.596265032526	22.5371317587715	
1512496026059.88	0.132530120481928	0.192771084337349	9.68674698795181	-6700.0	-3000.0	-3200.0	-0.400909090909091	0.470909090909091	0.0755102040816327	103.596265032526	22.5371317587715	
1512496026061.83	0.144578313253012	0.192771084337349	9.67469879518072	-7500.0	-2900.0	-2200.0	-0.400909090909091	0.470909090909091	0.0744897959183674	103.593309655035	22.5371317587715	
1512496026063.78	0.120481927710843	0.192771084337349	9.67469879518072	-10300.0	-2700.0	-2500.0	-0.401818181818182	0.449090909090909	0.0744897959183674	103.593309655035	22.5371317587715	
1512496026065.74	0.132530120481928	0.168674698795181	9.68674698795181	-7700.0	-1500.0	-2400.0	-0.401818181818182	0.449090909090909	0.0744897959183674	103.593309655035	22.5371317587715	
1512496026067.69	0.144578313253012	0.192771084337349	9.67469879518072	-7500.0	-3300.0	-1000.0	-0.402727272727273	0.45	0.0775510204081633	103.593309655035	22.5371317587715	
1512496026069.64	0.132530120481928	0.192771084337349	9.68674698795181	-7800.0	-1000.0	-1400.0	-0.402727272727273	0.45	0.0775510204081633	103.590354278313	22.5371317587715	
1512496026071.59	0.120481927710843	0.192771084337349	9.67469879518072	-8600.0	-3000.0	-1800.0	-0.4	0.471818181818182	0.0775510204081633	103.590354278313	22.5371317587715	
1512496026073.55	0.132530120481928	0.180722891566265	9.67469879518072	-8700.0	-1900.0	-1400.0	-0.4	0.471818181818182	0.0775510204081633	103.590354278313	22.5371317587715	
1512496026075.5	0.144578313253012	0.204819277108434	9.67469879518072	-8400.0	-1600.0	-1500.0	-0.4	0.450909090909091	0.076530612244898	103.590354278313	22.5371317587715	
1512496026077.45	0.132530120481928	0.180722891566265	9.67469879518072	-6900.0	-3200.0	-1000.0	-0.403636363636364	0.450909090909091	0.076530612244898	103.599220410785	22.5371317587715	
1512496026079.41	0.132530120481928	0.192771084337349	9.68674698795181	-8500.0	-3400.0	-2200.0	-0.403636363636364	0.450909090909091	0.076530612244898	103.599220410785	22.5371317587715	
1512496026081.36	0.132530120481928	0.192771084337349	9.67469879518072	-8300.0	-2100.0	-1400.0	-0.401818181818182	0.470909090909091	0.076530612244898	103.599220410785	22.5371317587715	
1512496026083.31	0.132530120481928	0.204819277108434	9.67469879518072	-9800.0	-3200.0	-2000.0	-0.401818181818182	0.470909090909091	0.076530612244898	103.599220410785	22.5371317587715	
1512496026085.27	0.132530120481928	0.192771084337349	9.67469879518072	-8800.0	-2200.0	-1800.0	-0.400909090909091	0.45	0.0755102040816327	103.587398902359	22.5371317587715	
1512496026087.22	0.144578313253012	0.192771084337349	9.68674698795181	-10200.0	-1900.0	-1800.0	-0.400909090909091	0.45	0.0755102040816327	103.587398902359	22.5371317587715	
1512496026089.17	0.132530120481928	0.192771084337349	9.68674698795181	-9200.0	-2700.0	-2100.0	-0.396363636363636	0.472727272727273	0.0857142857142857	103.587398902359	22.5371317587715	
1512496026091.13	0.132530120481928	0.192771084337349	9.67469879518072	-7700.0	-2900.0	-1900.0	-0.396363636363636	0.472727272727273	0.0857142857142857	103.587398902359	22.5371317587715	
1512496026093.08	0.132530120481928	0.204819277108434	9.68674698795181	-7000.0	-3400.0	-700.0	-0.396363636363636	0.472727272727273	0.0857142857142857	103.584443527175	22.5371317587715	
1512496026095.03	0.132530120481928	0.204819277108434	9.68674698795181	-7200.0	-2700.0	-1000.0	-0.399090909090909	0.474545454545455	0.0806122448979592	103.584443527175	22.5371317587715	
1512496026096.98	0.144578313253012	0.192771084337349	9.66265060240964	-7600.0	-2500.0	-2600.0	-0.399090909090909	0.474545454545455	0.0806122448979592	103.584443527175	22.5371317587715	
1512496026098.94	0.132530120481928	0.192771084337349	9.68674698795181	-8000.0	-3100.0	-1500.0	-0.400909090909091	0.471818181818182	0.076530612244898	103.584443527175	22.5371317587715	
1512496026100.89	0.144578313253012	0.180722891566265	9.67469879518072	-8200.0	-2400.0	-2400.0	-0.400909090909091	0.471818181818182	0.076530612244898	103.590354278313	22.5371317587715	
1512496026102.84	0.144578313253012	0.192771084337349	9.67469879518072	-7600.0	-3000.0	-2300.0	-0.402727272727273	0.470909090909091	0.073469387755102	103.590354278313	22.5371317587715	
1512496026104.8	0.132530120481928	0.204819277108434	9.67469879518072	-7600.0	-2800.0	-1200.0	-0.402727272727273	0.470909090909091	0.073469387755102	103.590354278313	22.5371317587715	
1512496026106.75	0.132530120481928	0.192771084337349	9.69879518072289	-9100.0	-1900.0	-1000.0	-0.402727272727273	0.470909090909091	0.073469387755102	103.590354278313	22.5371317587715	
1512496026108.7	0.132530120481928	0.204819277108434	9.68674698795181	-6900.0	-1900.0	-2000.0	-0.401818181818182	0.470909090909091	0.0785714285714286	103.587398902359	22.5371317587715	
1512496026110.66	0.132530120481928	0.204819277108434	9.67469879518072	-8500.0	-2600.0	-2200.0	-0.401818181818182	0.470909090909091	0.0785714285714286	103.587398902359	22.5371317587715	
1512496026112.61	0.132530120481928	0.204819277108434	9.67469879518072	-7400.0	-1800.0	-1100.0	-0.402727272727273	0.45	0.0755102040816327	103.587398902359	22.5371317587715	
1512496026114.56	0.132530120481928	0.216867469879518	9.67469879518072	-8500.0	-3900.0	-1300.0	-0.402727272727273	0.45	0.0755102040816327	103.587398902359	22.5371317587715	
1512496026116.52	0.132530120481928	0.192771084337349	9.68674698795181	-9300.0	-1800.0	-2100.0	-0.401818181818182	0.471818181818182	0.0775510204081633	103.584443527175	22.5371317587715	
1512496026118.47	0.132530120481928	0.204819277108434	9.68674698795181	-8700.0	-3200.0	-1000.0	-0.401818181818182	0.471818181818182	0.0775510204081633	103.584443527175	22.5371317587715	
1512496026120.42	0.132530120481928	0.180722891566265	9.68674698795181	-8900.0	-3200.0	-800.0	-0.401818181818182	0.471818181818182	0.0775510204081633	103.584443527175	22.5371317587715	
1512496026122.38	0.132530120481928	0.180722891566265	9.67469879518072	-8200.0	-2600.0	-2400.0	-0.401818181818182	0.470909090909091	0.0744897959183674	103.584443527175	22.5371317587715	
1512496026124.33	0.132530120481928	0.192771084337349	9.68674698795181	-7700.0	-2500.0	-2300.0	-0.401818181818182	0.470909090909091	0.0744897959183674	103.584443527175	22.5371317587715	
1512496026126.28	0.144578313253012	0.180722891566265	9.68674698795181	-9800.0	-3800.0	-1100.0	-0.4	0.470909090909091	0.076530612244898	103.584443527175	22.5371317587715	
1512496026128.24	0.144578313253012	0.192771084337349	9.68674698795181	-7200.0	-2300.0	-1900.0	-0.4	0.470909090909091	0.076530612244898	103.584443527175	22.5371317587715	
1512496026130.19	0.132530120481928	0.192771084337349	9.68674698795181	-8000.0	-1900.0	-2000.0	-0.399090909090909	0.472727272727273	0.0806122448979592	103.584443527175	22.5371317587715	
1512496026132.14	0.132530120481928	0.204819277108434	9.66265060240964	-8300.0	-2100.0	-700.0	-0.399090909090909	0.472727272727273	0.0806122448979592	103.587398902359	22.5371317587715	
1512496026134.09	0.144578313253012	0.204819277108434	9.67469879518072	-7200.0	-2000.0	-1100.0	-0.399090909090909	0.472727272727273	0.0806122448979592	103.587398902359	22.5371317587715	
1512496026136.05	0.132530120481928	0.204819277108434	9.68674698795181	-8000.0	-3100.0	-1700.0	-0.4	0.470909090909091	0.0785714285714286	103.587398902359	22.5371317587715	
1512496026138.0	0.132530120481928	0.204819277108434	9.68674698795181	-7700.0	-3300.0	-1200.0	-0.4	0.470909090909091	0.0785714285714286	103.587398902359	22.5371317587715	
1512496026139.95	0.132530120481928	0.192771084337349	9.67469879518072	-7300.0	-1700.0	-1200.0	-0.401818181818182	0.471818181818182	0.076530612244898	103.587398902359	22.5371317587715	
1512496026141.91	0.120481927710843	0.192771084337349	9.67469879518072	-7600.0	-1900.0	-3000.0	-0.401818181818182	0.471818181818182	0.076530612244898	103.587398902359	22.5371317587715	
1512496026143.86	0.120481927710843	0.204819277108434	9.66265060240964	-7500.0	-3700.0	-1600.0	-0.402727272727273	0.451818181818182	0.0755102040816327	103.587398902359	22.5371317587715	
1512496026145.81	0.132530120481928	0.192771084337349	9.67469879518072	-8900.0	-2200.0	-1700.0	-0.402727272727273	0.451818181818182	0.0755102040816327	103.587398902359	22.5371317587715	
1512496026147.77	0.132530120481928	0.180722891566265	9.67469879518072	-7500.0	-2100.0	-1800.0	-0.402727272727273	0.451818181818182	0.0755102040816327	103.584443527175	22.5371317587715	
1512496026149.72	0.132530120481928	0.192771084337349	9.67469879518072	-8500.0	-2800.0	-2200.0	-0.400909090909091	0.450909090909091	0.0744897959183674	103.584443527175	22.5371317587715	
1512496026151.67	0.120481927710843	0.192771084337349	9.67469879518072	-7100.0	-3300.0	-2000.0	-0.400909090909091	0.450909090909091	0.0744897959183674	103.584443527175	22.5371317587715	
1512496026153.63	0.120481927710843	0.180722891566265	9.68674698795181	-8400.0	-2100.0	-1700.0	-0.4	0.471818181818182	0.0775510204081633	103.584443527175	22.5371317587715	
1512496026155.58	0.132530120481928	0.192771084337349	9.66265060240964	-7700.0	-1900.0	-1000.0	-0.4	0.471818181818182	0.0775510204081633	103.587398902359	22.5371317587715	
1512496026157.53	0.132530120481928	0.192771084337349	9.68674698795181	-8200.0	-3100.0	-2300.0	-0.401818181818182	0.45	0.0755102040816327	103.587398902359	22.5371317587715	
1512496026159.49	0.120481927710843	0.180722891566265	9.68674698795181	-7100.0	-1400.0	-2700.0	-0.401818181818182	0.45	0.0755102040816327	103.587398902359	22.5371317587715	
1512496026161.44	0.132530120481928	0.180722891566265	9.68674698795181	-7000.0	-2400.0	-1300.0	-0.401818181818182	0.45	0.0755102040816327	103.587398902359	22.5371317587715	
1512496026163.39	0.120481927710843	0.168674698795181	9.67469879518072	-7800.0	-2000.0	-900.0	-0.400909090909091	0.452727272727273	0.0744897959183674	103.578532779114	22.5371317587715	
1512496026165.34	0.132530120481928	0.180722891566265	9.67469879518072	-7700.0	-1600.0	-2900.0	-0.400909090909091	0.452727272727273	0.0744897959183674	103.578532779114	22.5371317587715	
1512496026167.3	0.132530120481928	0.192771084337349	9.68674698795181	-9100.0	-2600.0	-1500.0	-0.399090909090909	0.471818181818182	0.0775510204081633	103.578532779114	22.5371317587715	
1512496026169.25	0.132530120481928	0.180722891566265	9.68674698795181	-6700.0	-3100.0	-1000.0	-0.399090909090909	0.471818181818182	0.0775510204081633	103.578532779114	22.5371317587715	
1512496026171.2	0.144578313253012	0.180722891566265	9.67469879518072	-7300.0	-2000.0	-2400.0	-0.398181818181818	0.453636363636364	0.0785714285714286	103.584443527175	22.5371317587715	
1512496026173.16	0.144578313253012	0.204819277108434	9.68674698795181	-8700.0	-2200.0	-1100.0	-0.398181818181818	0.453636363636364	0.0785714285714286	103.584443527175	22.5371317587715	
1512496026175.11	0.132530120481928	0.192771084337349	9.67469879518072	-9600.0	-1500.0	-1800.0	-0.398181818181818	0.453636363636364	0.0785714285714286	103.584443527175	22.5371317587715	
1512496026177.06	0.132530120481928	0.192771084337349	9.68674698795181	-7700.0	-1800.0	-1200.0	-0.400909090909091	0.45	0.076530612244898	103.584443527175	22.5371317587715	
1512496026179.02	0.120481927710843	0.180722891566265	9.67469879518072	-9600.0	-2500.0	-1000.0	-0.400909090909091	0.45	0.076530612244898	103.578532779114	22.5371317587715	
1512496026180.97	0.120481927710843	0.180722891566265	9.67469879518072	-10200.0	-2000.0	-2800.0	-0.400909090909091	0.471818181818182	0.073469387755102	103.578532779114	22.5371317587715	
1512496026182.92	0.132530120481928	0.180722891566265	9.67469879518072	-8000.0	-3700.0	-1900.0	-0.400909090909091	0.471818181818182	0.073469387755102	103.578532779114	22.5371317587715	
1512496026184.88	0.132530120481928	0.180722891566265	9.67469879518072	-8100.0	-2000.0	-2400.0	-0.4	0.451818181818182	0.0755102040816327	103.578532779114	22.5371317587715	
1512496026186.83	0.132530120481928	0.192771084337349	9.68674698795181	-8500.0	-1100.0	-1700.0	-0.4	0.451818181818182	0.0755102040816327	103.587398902359	22.5371317587715	
1512496026188.78	0.120481927710843	0.180722891566265	9.68674698795181	-7800.0	-3000.0	-1400.0	-0.4	0.451818181818182	0.0755102040816327	103.587398902359	22.5371317587715	
1512496026190.73	0.120481927710843	0.192771084337349	9.68674698795181	-7700.0	-3100.0	-2300.0	-0.401818181818182	0.451818181818182	0.076530612244898	103.587398902359	22.5371317587715	
1512496026192.69	0.120481927710843	0.192771084337349	9.67469879518072	-8200.0	-2000.0	-800.0	-0.401818181818182	0.451818181818182	0.076530612244898	103.587398902359	22.5371317587715	
1512496026194.64	0.132530120481928	0.204819277108434	9.67469879518072	-7100.0	-2400.0	-2600.0	-0.403636363636364	0.47	0.0775510204081633	103.584443527175	22.5371317587715	
1512496026196.59	0.132530120481928	0.204819277108434	9.68674698795181	-7500.0	-1600.0	-1100.0	-0.403636363636364	0.47	0.0775510204081633	103.584443527175	22.5371317587715	
1512496026198.55	0.132530120481928	0.192771084337349	9.67469879518072	-8800.0	-3300.0	-1900.0	-0.401818181818182	0.452727272727273	0.073469387755102	103.584443527175	22.5371317587715	
1512496026200.5	0.132530120481928	0.192771084337349	9.67469879518072	-8200.0	-3600.0	-1300.0	-0.401818181818182	0.452727272727273	0.073469387755102	103.584443527175	22.5371317587715	
1512496026202.45	0.144578313253012	0.180722891566265	9.67469879518072	-8200.0	-600.0	-2600.0	-0.401818181818182	0.452727272727273	0.073469387755102	103.587398902359	22.5371317587715	
1512496026204.41	0.144578313253012	0.180722891566265	9.67469879518072	-8200.0	-2900.0	-2000.0	-0.400909090909091	0.469090909090909	0.0775510204081633	103.587398902359	22.5371317587715	
1512496026206.36	0.132530120481928	0.180722891566265	9.68674698795181	-9000.0	-1400.0	-1400.0	-0.400909090909091	0.469090909090909	0.0775510204081633	103.587398902359	22.5371317587715	
1512496026208.31	0.132530120481928	0.192771084337349	9.68674698795181	-9000.0	-3100.0	-1500.0	-0.399090909090909	0.449090909090909	0.0775510204081633	103.587398902359	22.5371317587715	
1512496026210.27	0.144578313253012	0.180722891566265	9.68674698795181	-8800.0	-2800.0	-2300.0	-0.399090909090909	0.449090909090909	0.0775510204081633	103.58148815276	22.5371317587715	
1512496026212.22	0.132530120481928	0.180722891566265	9.68674698795181	-7500.0	-2800.0	-2300.0	-0.400909090909091	0.452727272727273	0.0785714285714286	103.58148815276	22.5371317587715	
1512496026214.17	0.132530120481928	0.192771084337349	9.68674698795181	-9100.0	-3000.0	-800.0	-0.400909090909091	0.452727272727273	0.0785714285714286	103.58148815276	22.5371317587715	
1512496026216.13	0.132530120481928	0.192771084337349	9.68674698795181	-7800.0	-2000.0	-600.0	-0.400909090909091	0.452727272727273	0.0785714285714286	103.58148815276	22.5371317587715	
1512496026218.08	0.132530120481928	0.180722891566265	9.68674698795181	-7200.0	-2500.0	-1200.0	-0.401818181818182	0.47	0.0755102040816327	103.58148815276	22.5371317587715	
1512496026220.03	0.132530120481928	0.180722891566265	9.69879518072289	-6900.0	-3500.0	-1100.0	-0.401818181818182	0.47	0.0755102040816327	103.58148815276	22.5371317587715	
1512496026221.98	0.120481927710843	0.192771084337349	9.69879518072289	-7300.0	-2400.0	-1300.0	-0.401818181818182	0.470909090909091	0.0724489795918367	103.58148815276	22.5371317587715	
1512496026223.94	0.132530120481928	0.180722891566265	9.69879518072289	-7400.0	-1800.0	-500.0	-0.401818181818182	0.470909090909091	0.0724489795918367	103.58148815276	22.5371317587715	
1512496026225.89	0.144578313253012	0.180722891566265	9.67469879518072	-7900.0	-3000.0	-2500.0	-0.401818181818182	0.453636363636364	0.0755102040816327	103.58148815276	22.5371317587715	
1512496026227.84	0.132530120481928	0.204819277108434	9.68674698795181	-8100.0	-2400.0	-1700.0	-0.401818181818182	0.453636363636364	0.0755102040816327	103.58148815276	22.5371317587715	
1512496026229.8	0.132530120481928	0.192771084337349	9.67469879518072	-7400.0	-3200.0	-1600.0	-0.401818181818182	0.453636363636364	0.0755102040816327	103.58148815276	22.5371317587715	
1512496026231.75	0.144578313253012	0.192771084337349	9.68674698795181	-7800.0	-2800.0	-2300.0	-0.400909090909091	0.47	0.0775510204081633	103.58148815276	22.5371317587715	
1512496026233.7	0.132530120481928	0.180722891566265	9.67469879518072	-9100.0	-2100.0	-2200.0	-0.400909090909091	0.47	0.0775510204081633	103.575577406237	22.5371317587715	
1512496026235.66	0.144578313253012	0.192771084337349	9.68674698795181	-7600.0	-1400.0	-1400.0	-0.401818181818182	0.448181818181818	0.0755102040816327	103.575577406237	22.5371317587715	
1512496026237.61	0.132530120481928	0.168674698795181	9.67469879518072	-7400.0	-2300.0	-200.0	-0.401818181818182	0.448181818181818	0.0755102040816327	103.575577406237	22.5371317587715	
1512496026239.56	0.144578313253012	0.192771084337349	9.68674698795181	-7800.0	-3500.0	-1900.0	-0.4	0.450909090909091	0.0744897959183674	103.575577406237	22.5371317587715	
1512496026241.52	0.120481927710843	0.192771084337349	9.68674698795181	-8600.0	-2600.0	-1700.0	-0.4	0.450909090909091	0.0744897959183674	103.575577406237	22.5371317587715	
1512496026243.47	0.132530120481928	0.180722891566265	9.68674698795181	-7100.0	-3200.0	-1400.0	-0.4	0.450909090909091	0.0744897959183674	103.575577406237	22.5371317587715	
1512496026245.42	0.132530120481928	0.180722891566265	9.67469879518072	-8300.0	-2500.0	-1000.0	-0.398181818181818	0.450909090909091	0.076530612244898	103.575577406237	22.5371317587715	
1512496026247.38	0.120481927710843	0.180722891566265	9.68674698795181	-8100.0	-2400.0	-1600.0	-0.398181818181818	0.450909090909091	0.076530612244898	103.575577406237	22.5371317587715	
1512496026249.33	0.132530120481928	0.192771084337349	9.67469879518072	-7800.0	-2700.0	-1700.0	-0.400909090909091	0.470909090909091	0.0755102040816327	103.58148815276	22.5371317587715	
1512496026251.28	0.132530120481928	0.180722891566265	9.68674698795181	-7500.0	-2800.0	-1300.0	-0.400909090909091	0.470909090909091	0.0755102040816327	103.58148815276	22.5371317587715	
1512496026253.23	0.132530120481928	0.192771084337349	9.68674698795181	-8900.0	-1400.0	-1300.0	-0.401818181818182	0.472727272727273	0.0795918367346939	103.58148815276	22.5371317587715	
1512496026255.19	0.132530120481928	0.204819277108434	9.67469879518072	-9100.0	-2000.0	-2800.0	-0.401818181818182	0.472727272727273	0.0795918367346939	103.58148815276	22.5371317587715	
1512496026257.14	0.144578313253012	0.192771084337349	9.67469879518072	-7300.0	-2700.0	-2100.0	-0.401818181818182	0.472727272727273	0.0795918367346939	103.578532779114	22.5371317587715	
1512496026259.09	0.132530120481928	0.180722891566265	9.67469879518072	-6900.0	-2600.0	-1100.0	-0.402727272727273	0.450909090909091	0.0744897959183674	103.578532779114	22.5371317587715	
1512496026261.05	0.120481927710843	0.180722891566265	9.66265060240964	-7500.0	-2900.0	-800.0	-0.402727272727273	0.450909090909091	0.0744897959183674	103.578532779114	22.5371317587715	
1512496026263.0	0.132530120481928	0.192771084337349	9.67469879518072	-8300.0	-2000.0	-1300.0	-0.401818181818182	0.471818181818182	0.076530612244898	103.578532779114	22.5371317587715	
1512496026264.95	0.132530120481928	0.180722891566265	9.67469879518072	-8400.0	-2600.0	-2000.0	-0.401818181818182	0.471818181818182	0.076530612244898	103.58148815276	22.5371317587715	
1512496026266.91	0.120481927710843	0.192771084337349	9.68674698795181	-7400.0	-4200.0	-2500.0	-0.400909090909091	0.450909090909091	0.0755102040816327	103.58148815276	22.5371317587715	
1512496026268.86	0.108433734939759	0.192771084337349	9.67469879518072	-8100.0	-2100.0	-1000.0	-0.400909090909091	0.450909090909091	0.0755102040816327	103.58148815276	22.5371317587715	
1512496026270.81	0.120481927710843	0.180722891566265	9.66265060240964	-8500.0	-1400.0	-1000.0	-0.400909090909091	0.450909090909091	0.0755102040816327	103.58148815276	22.5371317587715	
1512496026272.77	0.132530120481928	0.180722891566265	9.67469879518072	-6900.0	-2600.0	-1800.0	-0.4	0.45	0.076530612244898	103.575577406237	22.5371317587715	
1512496026274.72	0.132530120481928	0.156626506024096	9.67469879518072	-7600.0	-2600.0	-2500.0	-0.4	0.45	0.076530612244898	103.575577406237	22.5371317587715	
1512496026276.67	0.144578313253012	0.192771084337349	9.67469879518072	-8300.0	-2200.0	-1800.0	-0.398181818181818	0.448181818181818	0.0806122448979592	103.575577406237	22.5371317587715	
1512496026278.63	0.132530120481928	0.192771084337349	9.67469879518072	-7300.0	-1300.0	-2500.0	-0.398181818181818	0.448181818181818	0.0806122448979592	103.575577406237	22.5371317587715	
1512496026280.58	0.120481927710843	0.192771084337349	9.67469879518072	-7700.0	-3000.0	-2300.0	-0.401818181818182	0.472727272727273	0.0795918367346939	103.578532779114	22.5371317587715	
1512496026282.53	0.132530120481928	0.192771084337349	9.67469879518072	-8000.0	-2400.0	-2700.0	-0.401818181818182	0.472727272727273	0.0795918367346939	103.578532779114	22.5371317587715	
1512496026284.48	0.132530120481928	0.180722891566265	9.67469879518072	-8400.0	-2400.0	-2100.0	-0.401818181818182	0.472727272727273	0.0795918367346939	103.578532779114	22.5371317587715	
1512496026286.44	0.132530120481928	0.192771084337349	9.68674698795181	-7300.0	-2100.0	-2200.0	-0.402727272727273	0.472727272727273	0.076530612244898	103.578532779114	22.5371317587715	
1512496026288.39	0.132530120481928	0.168674698795181	9.67469879518072	-9200.0	-1800.0	-1100.0	-0.402727272727273	0.472727272727273	0.076530612244898	103.569666662789	22.5371317587715	
1512496026290.34	0.120481927710843	0.180722891566265	9.68674698795181	-8000.0	-3600.0	-1300.0	-0.401818181818182	0.470909090909091	0.0744897959183674	103.569666662789	22.5371317587715	
1512496026292.3	0.120481927710843	0.192771084337349	9.66265060240964	-8400.0	-1200.0	-1900.0	-0.401818181818182	0.470909090909091	0.0744897959183674	103.569666662789	22.5371317587715	
1512496026294.25	0.120481927710843	0.192771084337349	9.67469879518072	-8600.0	-3700.0	-1300.0	-0.400909090909091	0.452727272727273	0.0755102040816327	103.569666662789	22.5371317587715	
1512496026296.2	0.144578313253012	0.180722891566265	9.68674698795181	-6800.0	-3600.0	-2300.0	-0.400909090909091	0.452727272727273	0.0755102040816327	103.572622034128	22.5371317587715	
1512496026298.16	0.144578313253012	0.180722891566265	9.67469879518072	-8100.0	-2000.0	-1500.0	-0.400909090909091	0.452727272727273	0.0755102040816327	103.572622034128	22.5371317587715	
1512496026300.11	0.144578313253012	0.192771084337349	9.67469879518072	-7300.0	-2300.0	-2600.0	-0.401818181818182	0.470909090909091	0.0775510204081633	103.572622034128	22.5371317587715	
1512496026302.06	0.132530120481928	0.192771084337349	9.67469879518072	-8000.0	-1800.0	-1800.0	-0.401818181818182	0.470909090909091	0.0775510204081633	103.572622034128	22.5371317587715	
1512496026304.02	0.132530120481928	0.192771084337349	9.67469879518072	-7800.0	-3000.0	-1400.0	-0.401818181818182	0.470909090909091	0.0744897959183674	103.572622034128	22.5371317587715	
1512496026305.97	0.132530120481928	0.192771084337349	9.67469879518072	-8500.0	-3500.0	-2300.0	-0.401818181818182	0.470909090909091	0.0744897959183674	103.572622034128	22.5371317587715	
1512496026307.92	0.132530120481928	0.180722891566265	9.66265060240964	-6600.0	-3000.0	-2500.0	-0.4	0.471818181818182	0.0785714285714286	103.572622034128	22.5371317587715	
1512496026309.88	0.132530120481928	0.180722891566265	9.67469879518072	-8200.0	-2500.0	-1400.0	-0.4	0.471818181818182	0.0785714285714286	103.572622034128	22.5371317587715	
1512496026311.83	0.132530120481928	0.180722891566265	9.66265060240964	-8100.0	-2300.0	-2100.0	-0.4	0.471818181818182	0.0785714285714286	103.575577406237	22.5371317587715	
1512496026313.78	0.132530120481928	0.192771084337349	9.67469879518072	-8300.0	-3000.0	-2400.0	-0.397272727272727	0.470909090909091	0.0775510204081633	103.575577406237	22.5371317587715	
1512496026315.73	0.120481927710843	0.192771084337349	9.67469879518072	-7200.0	-1700.0	-2600.0	-0.397272727272727	0.470909090909091	0.0775510204081633	103.575577406237	22.5371317587715	
1512496026317.69	0.132530120481928	0.192771084337349	9.67469879518072	-7400.0	-1900.0	-1900.0	-0.4	0.471818181818182	0.0795918367346939	103.575577406237	22.5371317587715	
1512496026319.64	0.144578313253012	0.180722891566265	9.67469879518072	-8200.0	-1500.0	-1800.0	-0.4	0.471818181818182	0.0795918367346939	103.578532779114	22.5371317587715	
1512496026321.59	0.144578313253012	0.180722891566265	9.67469879518072	-7800.0	-1800.0	-1000.0	-0.4	0.453636363636364	0.0785714285714286	103.578532779114	22.5371317587715	
1512496026323.55	0.120481927710843	0.192771084337349	9.68674698795181	-8000.0	-3100.0	-1000.0	-0.4	0.453636363636364	0.0785714285714286	103.578532779114	22.5371317587715	
1512496026325.5	0.132530120481928	0.192771084337349	9.68674698795181	-7900.0	-2800.0	-1500.0	-0.4	0.453636363636364	0.0785714285714286	103.578532779114	22.5371317587715	
1512496026327.45	0.144578313253012	0.192771084337349	9.67469879518072	-7500.0	-1700.0	-900.0	-0.401818181818182	0.472727272727273	0.0775510204081633	103.578532779114	22.5371317587715	
1512496026329.41	0.132530120481928	0.180722891566265	9.68674698795181	-7500.0	-3200.0	-1200.0	-0.401818181818182	0.472727272727273	0.0775510204081633	103.578532779114	22.5371317587715	
1512496026331.36	0.120481927710843	0.180722891566265	9.68674698795181	-8500.0	-2000.0	-2000.0	-0.401818181818182	0.470909090909091	0.076530612244898	103.578532779114	22.5371317587715	
1512496026333.31	0.120481927710843	0.192771084337349	9.67469879518072	-8800.0	-3200.0	-2600.0	-0.401818181818182	0.470909090909091	0.076530612244898	103.578532779114	22.5371317587715	
1512496026335.27	0.120481927710843	0.192771084337349	9.67469879518072	-8300.0	-1700.0	-1700.0	-0.400909090909091	0.472727272727273	0.076530612244898	103.572622034128	22.5371317587715	
1512496026337.22	0.120481927710843	0.204819277108434	9.67469879518072	-7600.0	-2700.0	-1400.0	-0.400909090909091	0.472727272727273	0.076530612244898	103.572622034128	22.5371317587715	
1512496026339.17	0.132530120481928	0.204819277108434	9.68674698795181	-7000.0	-2700.0	-2900.0	-0.400909090909091	0.472727272727273	0.076530612244898	103.572622034128	22.5371317587715	
1512496026341.13	0.120481927710843	0.192771084337349	9.68674698795181	-9000.0	-1200.0	-1300.0	-0.4	0.469090909090909	0.0744897959183674	103.572622034128	22.5371317587715	
1512496026343.08	0.132530120481928	0.180722891566265	9.66265060240964	-6800.0	-1700.0	-1800.0	-0.4	0.469090909090909	0.0744897959183674	103.578532779114	22.5371317587715	
1512496026345.03	0.132530120481928	0.204819277108434	9.68674698795181	-7700.0	-2400.0	-2000.0	-0.401818181818182	0.45	0.073469387755102	103.578532779114	22.5371317587715	
1512496026346.98	0.144578313253012	0.192771084337349	9.66265060240964	-8800.0	-2200.0	-2800.0	-0.401818181818182	0.45	0.073469387755102	103.578532779114	22.5371317587715	
1512496026348.94	0.120481927710843	0.180722891566265	9.67469879518072	-8800.0	-1800.0	-1400.0	-0.4	0.470909090909091	0.0775510204081633	103.578532779114	22.5371317587715	
1512496026350.89	0.144578313253012	0.192771084337349	9.69879518072289	-8900.0	-2800.0	-1700.0	-0.4	0.470909090909091	0.0775510204081633	103.572622034128	22.5371317587715	
1512496026352.84	0.144578313253012	0.192771084337349	9.69879518072289	-9300.0	-2200.0	-1600.0	-0.4	0.470909090909091	0.0775510204081633	103.572622034128	22.5371317587715	
1512496026354.8	0.156626506024096	0.204819277108434	9.67469879518072	-8000.0	-3000.0	-1000.0	-0.4	0.470909090909091	0.0775510204081633	103.572622034128	22.5371317587715	
1512496026356.75	0.132530120481928	0.180722891566265	9.67469879518072	-8400.0	-2400.0	-2000.0	-0.4	0.470909090909091	0.0775510204081633	103.572622034128	22.5371317587715	
1512496026358.7	0.144578313253012	0.216867469879518	9.67469879518072	-7300.0	-2000.0	-1800.0	-0.401818181818182	0.45	0.0755102040816327	103.578532779114	22.5371317587715	
1512496026360.66	0.132530120481928	0.204819277108434	9.68674698795181	-8200.0	-3300.0	-800.0	-0.401818181818182	0.45	0.0755102040816327	103.578532779114	22.5371317587715	
1512496026362.61	0.120481927710843	0.204819277108434	9.68674698795181	-7500.0	-3200.0	-500.0	-0.4	0.474545454545455	0.073469387755102	103.578532779114	22.5371317587715	
1512496026364.56	0.120481927710843	0.204819277108434	9.67469879518072	-8900.0	-1500.0	-1500.0	-0.4	0.474545454545455	0.073469387755102	103.578532779114	22.5371317587715	
1512496026366.52	0.144578313253012	0.180722891566265	9.68674698795181	-7100.0	-2400.0	-1700.0	-0.4	0.474545454545455	0.073469387755102	103.572622034128	22.5371317587715	
1512496026368.47	0.132530120481928	0.192771084337349	9.68674698795181	-8700.0	-2200.0	-1600.0	-0.400909090909091	0.471818181818182	0.0755102040816327	103.572622034128	22.5371317587715	
1512496026370.42	0.144578313253012	0.192771084337349	9.69879518072289	-8200.0	-1900.0	-1400.0	-0.400909090909091	0.471818181818182	0.0755102040816327	103.572622034128	22.5371317587715	
1512496026372.38	0.132530120481928	0.204819277108434	9.68674698795181	-6900.0	-4400.0	-1100.0	-0.400909090909091	0.449090909090909	0.0775510204081633	103.572622034128	22.5371317587715	
1512496026374.33	0.132530120481928	0.204819277108434	9.67469879518072	-7200.0	-2700.0	0.0	-0.400909090909091	0.449090909090909	0.0775510204081633	103.575577406237	22.5371317587715	
1512496026376.28	0.132530120481928	0.192771084337349	9.68674698795181	-8500.0	-1600.0	-2800.0	-0.401818181818182	0.47	0.073469387755102	103.575577406237	22.5371317587715	
1512496026378.23	0.144578313253012	0.192771084337349	9.68674698795181	-8000.0	-2200.0	-1100.0	-0.401818181818182	0.47	0.073469387755102	103.575577406237	22.5371317587715	
1512496026380.19	0.144578313253012	0.192771084337349	9.67469879518072	-8700.0	-2900.0	-1300.0	-0.401818181818182	0.47	0.073469387755102	103.575577406237	22.5371317587715	
1512496026382.14	0.132530120481928	0.192771084337349	9.67469879518072	-9300.0	-2400.0	-1200.0	-0.401818181818182	0.472727272727273	0.0755102040816327	103.572622034128	22.5371317587715	
1512496026384.09	0.132530120481928	0.180722891566265	9.67469879518072	-7500.0	-2700.0	-1100.0	-0.401818181818182	0.472727272727273	0.0755102040816327	103.572622034128	22.5371317587715	
1512496026386.05	0.144578313253012	0.180722891566265	9.68674698795181	-7600.0	-3200.0	-2000.0	-0.399090909090909	0.470909090909091	0.076530612244898	103.572622034128	22.5371317587715	
1512496026388.0	0.156626506024096	0.192771084337349	9.68674698795181	-8500.0	-3700.0	-700.0	-0.399090909090909	0.470909090909091	0.076530612244898	103.572622034128	22.5371317587715	
1512496026389.95	0.144578313253012	0.180722891566265	9.68674698795181	-7600.0	-1100.0	-1100.0	-0.401818181818182	0.470909090909091	0.0775510204081633	103.569666662789	22.5371317587715	
1512496026391.91	0.132530120481928	0.192771084337349	9.67469879518072	-8100.0	-2900.0	-1200.0	-0.401818181818182	0.470909090909091	0.0775510204081633	103.569666662789	22.5371317587715	
1512496026393.86	0.144578313253012	0.204819277108434	9.67469879518072	-7800.0	-2700.0	-1900.0	-0.401818181818182	0.470909090909091	0.0775510204081633	103.569666662789	22.5371317587715	
1512496026395.81	0.132530120481928	0.204819277108434	9.68674698795181	-9300.0	-1900.0	-2000.0	-0.4	0.452727272727273	0.0775510204081633	103.569666662789	22.5371317587715	
1512496026397.77	0.132530120481928	0.204819277108434	9.67469879518072	-7900.0	-3000.0	-3400.0	-0.4	0.452727272727273	0.0775510204081633	103.575577406237	22.5371317587715	
1512496026399.72	0.120481927710843	0.192771084337349	9.68674698795181	-9000.0	-2600.0	-1300.0	-0.400909090909091	0.453636363636364	0.0744897959183674	103.575577406237	22.5371317587715	
1512496026401.67	0.132530120481928	0.192771084337349	9.67469879518072	-7300.0	-2400.0	-2600.0	-0.400909090909091	0.453636363636364	0.0744897959183674	103.575577406237	22.5371317587715	
1512496026403.63	0.132530120481928	0.180722891566265	9.68674698795181	-7400.0	-1000.0	-1300.0	-0.401818181818182	0.471818181818182	0.073469387755102	103.575577406237	22.5371317587715	
1512496026405.58	0.132530120481928	0.192771084337349	9.67469879518072	-8600.0	-2700.0	-400.0	-0.401818181818182	0.471818181818182	0.073469387755102	103.569666662789	22.5371317587715	
1512496026407.53	0.120481927710843	0.192771084337349	9.67469879518072	-8600.0	-1600.0	-2200.0	-0.401818181818182	0.471818181818182	0.073469387755102	103.569666662789	22.5371317587715	
1512496026409.49	0.132530120481928	0.204819277108434	9.67469879518072	-8700.0	-3600.0	-600.0	-0.401818181818182	0.473636363636364	0.0744897959183674	103.569666662789	22.5371317587715	
1512496026411.44	0.144578313253012	0.192771084337349	9.68674698795181	-8700.0	-3100.0	-2200.0	-0.401818181818182	0.473636363636364	0.0744897959183674	103.569666662789	22.5371317587715	
1512496026413.39	0.132530120481928	0.192771084337349	9.68674698795181	-7800.0	-1700.0	-2000.0	-0.400909090909091	0.451818181818182	0.0755102040816327	103.572622034128	22.5371317587715	
1512496026415.34	0.120481927710843	0.168674698795181	9.67469879518072	-8500.0	-2600.0	-1100.0	-0.400909090909091	0.451818181818182	0.0755102040816327	103.572622034128	22.5371317587715	
1512496026417.3	0.132530120481928	0.180722891566265	9.68674698795181	-7200.0	-3100.0	-2800.0	-0.402727272727273	0.452727272727273	0.0744897959183674	103.572622034128	22.5371317587715	
1512496026419.25	0.144578313253012	0.192771084337349	9.68674698795181	-8300.0	-2400.0	-1000.0	-0.402727272727273	0.452727272727273	0.0744897959183674	103.572622034128	22.5371317587715	
1512496026421.2	0.132530120481928	0.204819277108434	9.67469879518072	-6900.0	-3200.0	-900.0	-0.402727272727273	0.452727272727273	0.0744897959183674	103.575577406237	22.5371317587715	
1512496026423.16	0.120481927710843	0.192771084337349	9.67469879518072	-9000.0	-1600.0	-1300.0	-0.402727272727273	0.450909090909091	0.0744897959183674	103.575577406237	22.5371317587715	
1512496026425.11	0.144578313253012	0.192771084337349	9.66265060240964	-8400.0	-3200.0	-1500.0	-0.402727272727273	0.450909090909091	0.0744897959183674	103.575577406237	22.5371317587715	
1512496026427.06	0.132530120481928	0.192771084337349	9.67469879518072	-9000.0	-1500.0	-1100.0	-0.4	0.471818181818182	0.076530612244898	103.575577406237	22.5371317587715	
1512496026429.02	0.120481927710843	0.204819277108434	9.68674698795181	-7300.0	-1400.0	-1600.0	-0.4	0.471818181818182	0.076530612244898	103.572622034128	22.5371317587715	
1512496026430.97	0.108433734939759	0.192771084337349	9.67469879518072	-8900.0	-2500.0	-2300.0	-0.399090909090909	0.473636363636364	0.0806122448979592	103.572622034128	22.5371317587715	
1512496026432.92	0.132530120481928	0.192771084337349	9.67469879518072	-8900.0	-2400.0	-2000.0	-0.399090909090909	0.473636363636364	0.0806122448979592	103.572622034128	22.5371317587715	
1512496026434.88	0.120481927710843	0.192771084337349	9.67469879518072	-7700.0	-2000.0	-1600.0	-0.399090909090909	0.473636363636364	0.0806122448979592	103.572622034128	22.5371317587715	
1512496026436.83	0.132530120481928	0.204819277108434	9.68674698795181	-7000.0	-2100.0	-1200.0	-0.401818181818182	0.47	0.0744897959183674	103.566711292219	22.5371317587715	
1512496026438.78	0.144578313253012	0.192771084337349	9.68674698795181	-9600.0	-3300.0	-900.0	-0.401818181818182	0.47	0.0744897959183674	103.566711292219	22.5371317587715	
1512496026440.73	0.132530120481928	0.204819277108434	9.68674698795181	-9100.0	-1400.0	-1700.0	-0.400909090909091	0.470909090909091	0.076530612244898	103.566711292219	22.5371317587715	
1512496026442.69	0.132530120481928	0.180722891566265	9.68674698795181	-8300.0	-3400.0	-2000.0	-0.400909090909091	0.470909090909091	0.076530612244898	103.566711292219	22.5371317587715	
1512496026444.64	0.120481927710843	0.204819277108434	9.67469879518072	-7800.0	-2600.0	-1100.0	-0.403636363636364	0.470909090909091	0.0755102040816327	103.578532779114	22.5371317587715	
1512496026446.59	0.132530120481928	0.192771084337349	9.65060240963856	-8100.0	-2400.0	-2200.0	-0.403636363636364	0.470909090909091	0.0755102040816327	103.578532779114	22.5371317587715	
1512496026448.55	0.132530120481928	0.180722891566265	9.71084337349398	-8600.0	-2600.0	-3000.0	-0.403636363636364	0.470909090909091	0.0755102040816327	103.578532779114	22.5371317587715	
1512496026450.5	0.144578313253012	0.192771084337349	9.67469879518072	-6900.0	-700.0	-1000.0	-0.402727272727273	0.450909090909091	0.0775510204081633	103.578532779114	22.5371317587715	
1512496026452.45	0.132530120481928	0.192771084337349	9.66265060240964	-7800.0	-2800.0	-2600.0	-0.402727272727273	0.450909090909091	0.0775510204081633	103.572622034128	22.5371317587715	
1512496026454.41	0.132530120481928	0.192771084337349	9.67469879518072	-8700.0	-1800.0	-2300.0	-0.401818181818182	0.451818181818182	0.0744897959183674	103.572622034128	22.5371317587715	
1512496026456.36	0.132530120481928	0.180722891566265	9.67469879518072	-7600.0	-3200.0	-1900.0	-0.401818181818182	0.451818181818182	0.0744897959183674	103.572622034128	22.5371317587715	
1512496026458.31	0.120481927710843	0.180722891566265	9.68674698795181	-8200.0	-2400.0	-1900.0	-0.403636363636364	0.45	0.0744897959183674	103.572622034128	22.5371317587715	
1512496026460.27	0.120481927710843	0.180722891566265	9.68674698795181	-7700.0	-3200.0	-2000.0	-0.403636363636364	0.45	0.0744897959183674	103.566711292219	22.5371317587715	
1512496026462.22	0.132530120481928	0.192771084337349	9.68674698795181	-8800.0	-1300.0	-2700.0	-0.403636363636364	0.45	0.0744897959183674	103.566711292219	22.5371317587715	
1512496026464.17	0.132530120481928	0.192771084337349	9.66265060240964	-7600.0	-2400.0	-800.0	-0.400909090909091	0.449090909090909	0.076530612244898	103.566711292219	22.5371317587715	
1512496026466.13	0.144578313253012	0.180722891566265	9.68674698795181	-6100.0	-1400.0	-1900.0	-0.400909090909091	0.449090909090909	0.076530612244898	103.566711292219	22.5371317587715	
1512496026468.08	0.132530120481928	0.180722891566265	9.66265060240964	-7900.0	-2400.0	-2100.0	-0.399090909090909	0.471818181818182	0.0775510204081633	103.563755922417	22.5371317587715	
1512496026470.03	0.120481927710843	0.192771084337349	9.66265060240964	-8100.0	-2500.0	-800.0	-0.399090909090909	0.471818181818182	0.0775510204081633	103.563755922417	22.5371317587715	
1512496026471.98	0.120481927710843	0.180722891566265	9.67469879518072	-9200.0	-3100.0	-100.0	-0.398181818181818	0.472727272727273	0.0744897959183674	103.563755922417	22.5371317587715	
1512496026473.94	0.120481927710843	0.204819277108434	9.67469879518072	-8800.0	-2600.0	-1000.0	-0.398181818181818	0.472727272727273	0.0744897959183674	103.563755922417	22.5371317587715	
1512496026475.89	0.132530120481928	0.192771084337349	9.68674698795181	-8300.0	-3400.0	-1100.0	-0.398181818181818	0.472727272727273	0.0744897959183674	103.569666662789	22.5371317587715	
1512496026477.84	0.144578313253012	0.180722891566265	9.67469879518072	-7800.0	-2800.0	-400.0	-0.401818181818182	0.449090909090909	0.076530612244898	103.569666662789	22.5371317587715	
1512496026479.8	0.132530120481928	0.180722891566265	9.67469879518072	-7200.0	-3300.0	-1200.0	-0.401818181818182	0.449090909090909	0.076530612244898	103.569666662789	22.5371317587715	
1512496026481.75	0.132530120481928	0.192771084337349	9.67469879518072	-8900.0	-3300.0	-2600.0	-0.402727272727273	0.450909090909091	0.073469387755102	103.569666662789	22.5371317587715	
1512496026483.7	0.120481927710843	0.192771084337349	9.68674698795181	-7200.0	-2200.0	-2300.0	-0.402727272727273	0.450909090909091	0.073469387755102	103.578532779114	22.5371317587715	
1512496026485.66	0.144578313253012	0.192771084337349	9.68674698795181	-7900.0	-2300.0	-2300.0	-0.402727272727273	0.471818181818182	0.0755102040816327	103.578532779114	22.5371317587715	
1512496026487.61	0.132530120481928	0.204819277108434	9.68674698795181	-7900.0	-100.0	-1300.0	-0.402727272727273	0.471818181818182	0.0755102040816327	103.578532779114	22.5371317587715	
1512496026489.56	0.132530120481928	0.204819277108434	9.68674698795181	-8300.0	-2700.0	-1800.0	-0.402727272727273	0.471818181818182	0.0755102040816327	103.578532779114	22.5371317587715	
1512496026491.52	0.144578313253012	0.192771084337349	9.68674698795181	-7000.0	-2700.0	-2300.0	-0.402727272727273	0.472727272727273	0.0755102040816327	103.563755922417	22.5371317587715	
1512496026493.47	0.120481927710843	0.192771084337349	9.68674698795181	-6700.0	-2400.0	-1800.0	-0.402727272727273	0.472727272727273	0.0755102040816327	103.563755922417	22.5371317587715	
1512496026495.42	0.132530120481928	0.192771084337349	9.68674698795181	-8300.0	-2400.0	-1800.0	-0.402727272727273	0.45	0.0755102040816327	103.563755922417	22.5371317587715	
1512496026497.38	0.144578313253012	0.192771084337349	9.67469879518072	-8200.0	-2700.0	-700.0	-0.402727272727273	0.45	0.0755102040816327	103.563755922417	22.5371317587715	
1512496026499.33	0.132530120481928	0.192771084337349	9.68674698795181	-9600.0	-2800.0	-1900.0	-0.400909090909091	0.471818181818182	0.0755102040816327	103.563755922417	22.5371317587715	
1512496026501.28	0.120481927710843	0.192771084337349	9.67469879518072	-8300.0	-2000.0	-1900.0	-0.400909090909091	0.471818181818182	0.0755102040816327	103.563755922417	22.5371317587715	
1512496026503.23	0.144578313253012	0.180722891566265	9.67469879518072	-9500.0	-2500.0	-1500.0	-0.400909090909091	0.471818181818182	0.0755102040816327	103.563755922417	22.5371317587715	
1512496026505.19	0.132530120481928	0.180722891566265	9.68674698795181	-8300.0	-3700.0	-900.0	-0.397272727272727	0.452727272727273	0.0755102040816327	103.563755922417	22.5371317587715	
1512496026507.14	0.132530120481928	0.192771084337349	9.69879518072289	-9000.0	-3600.0	-600.0	-0.397272727272727	0.452727272727273	0.0755102040816327	103.566711292219	22.5371317587715	
1512496026509.09	0.132530120481928	0.192771084337349	9.67469879518072	-8100.0	-2500.0	100.0	-0.400909090909091	0.450909090909091	0.0744897959183674	103.566711292219	22.5371317587715	
1512496026511.05	0.132530120481928	0.192771084337349	9.68674698795181	-8500.0	-1000.0	-2400.0	-0.400909090909091	0.450909090909091	0.0744897959183674	103.566711292219	22.5371317587715	
1512496026513.0	0.132530120481928	0.192771084337349	9.68674698795181	-8900.0	-1000.0	-2200.0	-0.4	0.450909090909091	0.0755102040816327	103.566711292219	22.5371317587715	
1512496026514.95	0.132530120481928	0.204819277108434	9.67469879518072	-7600.0	-1800.0	-1500.0	-0.4	0.450909090909091	0.0755102040816327	103.569666662789	22.5371317587715	
1512496026516.91	0.132530120481928	0.192771084337349	9.68674698795181	-7900.0	-2700.0	-1400.0	-0.4	0.450909090909091	0.0755102040816327	103.569666662789	22.5371317587715	
1512496026518.86	0.132530120481928	0.180722891566265	9.68674698795181	-7200.0	-3100.0	-1500.0	-0.4	0.450909090909091	0.0744897959183674	103.569666662789	22.5371317587715	
1512496026520.81	0.132530120481928	0.180722891566265	9.67469879518072	-9100.0	-2400.0	-800.0	-0.4	0.450909090909091	0.0744897959183674	103.569666662789	22.5371317587715	
1512496026522.77	0.132530120481928	0.180722891566265	9.68674698795181	-10100.0	-3100.0	-2100.0	-0.401818181818182	0.470909090909091	0.0744897959183674	103.566711292219	22.5371317587715	
1512496026524.72	0.132530120481928	0.192771084337349	9.67469879518072	-8200.0	-2100.0	-1900.0	-0.401818181818182	0.470909090909091	0.0744897959183674	103.566711292219	22.5371317587715	
1512496026526.67	0.144578313253012	0.180722891566265	9.68674698795181	-6800.0	-3200.0	-1700.0	-0.400909090909091	0.470909090909091	0.076530612244898	103.566711292219	22.5371317587715	
1512496026528.63	0.156626506024096	0.192771084337349	9.67469879518072	-6300.0	-2400.0	-2400.0	-0.400909090909091	0.470909090909091	0.076530612244898	103.566711292219	22.5371317587715	
1512496026530.58	0.120481927710843	0.204819277108434	9.68674698795181	-8400.0	-3200.0	-500.0	-0.400909090909091	0.470909090909091	0.076530612244898	103.566711292219	22.5371317587715	
1512496026532.53	0.120481927710843	0.204819277108434	9.68674698795181	-8300.0	-1000.0	-1600.0	-0.4	0.471818181818182	0.076530612244898	103.566711292219	22.5371317587715	
1512496026534.48	0.132530120481928	0.180722891566265	9.68674698795181	-8200.0	-2400.0	-700.0	-0.4	0.471818181818182	0.076530612244898	103.566711292219	22.5371317587715	
1512496026536.44	0.144578313253012	0.192771084337349	9.68674698795181	-8300.0	-2600.0	-300.0	-0.399090909090909	0.469090909090909	0.0806122448979592	103.566711292219	22.5371317587715	
1512496026538.39	0.132530120481928	0.192771084337349	9.69879518072289	-7500.0	-2500.0	-700.0	-0.399090909090909	0.469090909090909	0.0806122448979592	103.566711292219	22.5371317587715	
1512496026540.34	0.132530120481928	0.192771084337349	9.67469879518072	-7400.0	-2300.0	-1900.0	-0.4	0.45	0.0785714285714286	103.566711292219	22.5371317587715	
1512496026542.3	0.132530120481928	0.180722891566265	9.67469879518072	-8100.0	-3000.0	-2000.0	-0.4	0.45	0.0785714285714286	103.566711292219	22.5371317587715	
1512496026544.25	0.120481927710843	0.204819277108434	9.68674698795181	-6500.0	-2700.0	-1500.0	-0.4	0.45	0.0744897959183674	103.566711292219	22.5371317587715	
1512496026546.2	0.132530120481928	0.180722891566265	9.67469879518072	-7500.0	-1800.0	-1900.0	-0.400909090909091	0.45	0.0744897959183674	103.569666662789	22.5371317587715	
1512496026548.16	0.132530120481928	0.204819277108434	9.67469879518072	-8100.0	-3000.0	-2400.0	-0.400909090909091	0.45	0.0744897959183674	103.569666662789	22.5371317587715	
1512496026550.11	0.132530120481928	0.192771084337349	9.68674698795181	-7600.0	-2700.0	-2700.0	-0.401818181818182	0.47	0.0744897959183674	103.569666662789	22.5371317587715	
1512496026552.06	0.132530120481928	0.180722891566265	9.67469879518072	-8200.0	-2200.0	-300.0	-0.401818181818182	0.47	0.0744897959183674	103.569666662789	22.5371317587715	
1512496026554.02	0.144578313253012	0.204819277108434	9.67469879518072	-7600.0	-2200.0	-500.0	-0.401818181818182	0.47	0.076530612244898	103.566711292219	22.5371317587715	
1512496026555.97	0.120481927710843	0.192771084337349	9.67469879518072	-8500.0	-3200.0	-1600.0	-0.401818181818182	0.47	0.076530612244898	103.566711292219	22.5371317587715	
1512496026557.92	0.132530120481928	0.192771084337349	9.68674698795181	-8300.0	-2700.0	-1600.0	-0.401818181818182	0.47	0.0775510204081633	103.566711292219	22.5371317587715	
1512496026559.88	0.132530120481928	0.204819277108434	9.67469879518072	-7600.0	-2800.0	-2300.0	-0.403636363636364	0.470909090909091	0.0775510204081633	103.566711292219	22.5371317587715	
1512496026561.83	0.144578313253012	0.192771084337349	9.67469879518072	-7600.0	-3100.0	-1600.0	-0.403636363636364	0.470909090909091	0.0775510204081633	103.566711292219	22.5371317587715	
1512496026563.78	0.144578313253012	0.192771084337349	9.68674698795181	-8300.0	-2500.0	-1600.0	-0.402727272727273	0.471818181818182	0.076530612244898	103.566711292219	22.5371317587715	
1512496026565.73	0.132530120481928	0.180722891566265	9.67469879518072	-8000.0	-2600.0	-1800.0	-0.402727272727273	0.471818181818182	0.076530612244898	103.566711292219	22.5371317587715	
1512496026567.69	0.144578313253012	0.204819277108434	9.67469879518072	-7700.0	-1900.0	-200.0	-0.4	0.472727272727273	0.0785714285714286	103.566711292219	22.5371317587715	
1512496026569.64	0.132530120481928	0.180722891566265	9.66265060240964	-8300.0	-2300.0	-2000.0	-0.4	0.472727272727273	0.0785714285714286	103.572622034128	22.5371317587715	
1512496026571.59	0.132530120481928	0.192771084337349	9.67469879518072	-9000.0	-1800.0	-1500.0	-0.4	0.472727272727273	0.0857142857142857	103.572622034128	22.5371317587715	
1512496026573.55	0.144578313253012	0.192771084337349	9.68674698795181	-9000.0	-2300.0	-2000.0	-0.399090909090909	0.473636363636364	0.0857142857142857	103.572622034128	22.5371317587715	
1512496026575.5	0.144578313253012	0.180722891566265	9.68674698795181	-6700.0	-2500.0	-2200.0	-0.399090909090909	0.473636363636364	0.0857142857142857	103.572622034128	22.5371317587715	
1512496026577.45	0.144578313253012	0.192771084337349	9.66265060240964	-6800.0	-2300.0	-1900.0	-0.400909090909091	0.471818181818182	0.0775510204081633	103.566711292219	22.5371317587715	
1512496026579.41	0.132530120481928	0.180722891566265	9.67469879518072	-10100.0	-2800.0	-400.0	-0.400909090909091	0.471818181818182	0.0775510204081633	103.566711292219	22.5371317587715	
1512496026581.36	0.132530120481928	0.192771084337349	9.67469879518072	-8000.0	-3800.0	-700.0	-0.400909090909091	0.453636363636364	0.0775510204081633	103.566711292219	22.5371317587715	
1512496026583.31	0.120481927710843	0.192771084337349	9.68674698795181	-7700.0	-1400.0	-2300.0	-0.400909090909091	0.453636363636364	0.0775510204081633	103.566711292219	22.5371317587715	
1512496026585.27	0.132530120481928	0.180722891566265	9.67469879518072	-8600.0	-1700.0	-1200.0	-0.400909090909091	0.453636363636364	0.073469387755102	103.569666662789	22.5371317587715	
1512496026587.22	0.132530120481928	0.168674698795181	9.68674698795181	-6200.0	-2800.0	-1600.0	-0.400909090909091	0.471818181818182	0.073469387755102	103.569666662789	22.5371317587715	
1512496026589.17	0.120481927710843	0.180722891566265	9.68674698795181	-8500.0	-1700.0	-2000.0	-0.400909090909091	0.471818181818182	0.073469387755102	103.569666662789	22.5371317587715	
1512496026591.13	0.132530120481928	0.180722891566265	9.66265060240964	-7700.0	-2400.0	-1000.0	-0.399090909090909	0.449090909090909	0.0755102040816327	103.569666662789	22.5371317587715	
1512496026593.08	0.132530120481928	0.180722891566265	9.67469879518072	-7200.0	-3300.0	-1400.0	-0.399090909090909	0.449090909090909	0.0755102040816327	103.563755922417	22.5371317587715	
1512496026595.03	0.144578313253012	0.168674698795181	9.68674698795181	-6400.0	-2200.0	-1300.0	-0.402727272727273	0.472727272727273	0.073469387755102	103.563755922417	22.5371317587715	
1512496026596.99	0.132530120481928	0.180722891566265	9.68674698795181	-7500.0	-3400.0	-2100.0	-0.402727272727273	0.472727272727273	0.073469387755102	103.563755922417	22.5371317587715	
1512496026598.94	0.156626506024096	0.180722891566265	9.67469879518072	-8500.0	-2400.0	-1800.0	-0.402727272727273	0.450909090909091	0.076530612244898	103.563755922417	22.5371317587715	
1512496026600.89	0.144578313253012	0.180722891566265	9.67469879518072	-9000.0	-3600.0	-1000.0	-0.404545454545455	0.450909090909091	0.076530612244898	103.578532779114	22.5371317587715	
1512496026602.84	0.120481927710843	0.180722891566265	9.67469879518072	-8200.0	-3500.0	-1200.0	-0.404545454545455	0.450909090909091	0.076530612244898	103.578532779114	22.5371317587715	
1512496026604.8	0.132530120481928	0.192771084337349	9.68674698795181	-8700.0	-2200.0	-1300.0	-0.403636363636364	0.471818181818182	0.0785714285714286	103.578532779114	22.5371317587715	
1512496026606.75	0.120481927710843	0.192771084337349	9.67469879518072	-8400.0	-3000.0	-2000.0	-0.403636363636364	0.471818181818182	0.0785714285714286	103.578532779114	22.5371317587715	
1512496026608.7	0.144578313253012	0.204819277108434	9.66265060240964	-8300.0	-2200.0	-1700.0	-0.401818181818182	0.470909090909091	0.0724489795918367	103.566711292219	22.5371317587715	
1512496026610.66	0.144578313253012	0.204819277108434	9.67469879518072	-8200.0	-1900.0	-2300.0	-0.401818181818182	0.470909090909091	0.0724489795918367	103.566711292219	22.5371317587715	
1512496026612.61	0.132530120481928	0.180722891566265	9.67469879518072	-7300.0	-2800.0	-2300.0	-0.400909090909091	0.471818181818182	0.0775510204081633	103.566711292219	22.5371317587715	
1512496026614.56	0.144578313253012	0.180722891566265	9.67469879518072	-7500.0	-2800.0	-3100.0	-0.400909090909091	0.471818181818182	0.0775510204081633	103.566711292219	22.5371317587715	
1512496026616.52	0.120481927710843	0.204819277108434	9.68674698795181	-7800.0	-3600.0	-800.0	-0.400909090909091	0.471818181818182	0.0775510204081633	103.563755922417	22.5371317587715	
1512496026618.47	0.132530120481928	0.192771084337349	9.68674698795181	-8700.0	-2600.0	-1600.0	-0.402727272727273	0.472727272727273	0.0755102040816327	103.563755922417	22.5371317587715	
1512496026620.42	0.132530120481928	0.192771084337349	9.67469879518072	-7600.0	-2300.0	-2000.0	-0.402727272727273	0.472727272727273	0.0755102040816327	103.563755922417	22.5371317587715	
1512496026622.38	0.132530120481928	0.192771084337349	9.67469879518072	-7800.0	-3100.0	-1500.0	-0.400909090909091	0.449090909090909	0.0744897959183674	103.563755922417	22.5371317587715	
1512496026624.33	0.132530120481928	0.192771084337349	9.68674698795181	-7900.0	-3100.0	-1700.0	-0.400909090909091	0.449090909090909	0.0744897959183674	103.572622034128	22.5371317587715	
1512496026626.28	0.120481927710843	0.180722891566265	9.68674698795181	-9000.0	-2900.0	-2300.0	-0.4	0.470909090909091	0.076530612244898	103.572622034128	22.5371317587715	
1512496026628.23	0.144578313253012	0.192771084337349	9.67469879518072	-8000.0	-2400.0	-1200.0	-0.4	0.470909090909091	0.076530612244898	103.572622034128	22.5371317587715	
1512496026630.19	0.132530120481928	0.204819277108434	9.67469879518072	-7700.0	-2600.0	-800.0	-0.4	0.470909090909091	0.076530612244898	103.572622034128	22.5371317587715	
1512496026632.14	0.144578313253012	0.180722891566265	9.67469879518072	-9500.0	-4000.0	-1400.0	-0.4	0.471818181818182	0.076530612244898	103.566711292219	22.5371317587715	
1512496026634.09	0.120481927710843	0.192771084337349	9.66265060240964	-8200.0	-3200.0	-400.0	-0.4	0.471818181818182	0.076530612244898	103.566711292219	22.5371317587715	
1512496026636.05	0.132530120481928	0.180722891566265	9.67469879518072	-8000.0	-1800.0	-2400.0	-0.402727272727273	0.47	0.076530612244898	103.566711292219	22.5371317587715	
1512496026638.0	0.144578313253012	0.180722891566265	9.68674698795181	-9000.0	-2200.0	-2400.0	-0.402727272727273	0.47	0.076530612244898	103.566711292219	22.5371317587715	
1512496026639.95	0.132530120481928	0.180722891566265	9.67469879518072	-6400.0	-2200.0	-1200.0	-0.401818181818182	0.47	0.0744897959183674	103.569666662789	22.5371317587715	
1512496026641.91	0.132530120481928	0.192771084337349	9.68674698795181	-7700.0	-2500.0	-1600.0	-0.401818181818182	0.47	0.0744897959183674	103.569666662789	22.5371317587715	
1512496026643.86	0.120481927710843	0.180722891566265	9.69879518072289	-8900.0	-1400.0	-2300.0	-0.401818181818182	0.47	0.0744897959183674	103.569666662789	22.5371317587715	
1512496026645.81	0.120481927710843	0.180722891566265	9.67469879518072	-6900.0	-2200.0	-1500.0	-0.4	0.472727272727273	0.0795918367346939	103.569666662789	22.5371317587715	
1512496026647.77	0.132530120481928	0.192771084337349	9.67469879518072	-7100.0	-2300.0	-2000.0	-0.4	0.472727272727273	0.0795918367346939	103.563755922417	22.5371317587715	
1512496026649.72	0.132530120481928	0.204819277108434	9.67469879518072	-7800.0	-2800.0	-1700.0	-0.399090909090909	0.450909090909091	0.0785714285714286	103.563755922417	22.5371317587715	
1512496026651.67	0.120481927710843	0.180722891566265	9.68674698795181	-9600.0	-1300.0	-2400.0	-0.399090909090909	0.450909090909091	0.0785714285714286	103.563755922417	22.5371317587715	
1512496026653.63	0.132530120481928	0.180722891566265	9.68674698795181	-6800.0	-2300.0	-1500.0	-0.401818181818182	0.471818181818182	0.0795918367346939	103.563755922417	22.5371317587715	
1512496026655.58	0.144578313253012	0.192771084337349	9.68674698795181	-7500.0	-1700.0	-1500.0	-0.401818181818182	0.471818181818182	0.0795918367346939	103.566711292219	22.5371317587715	
1512496026657.53	0.144578313253012	0.180722891566265	9.68674698795181	-7300.0	-1700.0	-1100.0	-0.401818181818182	0.471818181818182	0.0795918367346939	103.566711292219	22.5371317587715	
1512496026659.49	0.132530120481928	0.192771084337349	9.67469879518072	-7000.0	-2400.0	-1700.0	-0.401818181818182	0.452727272727273	0.073469387755102	103.566711292219	22.5371317587715	
1512496026661.44	0.132530120481928	0.192771084337349	9.67469879518072	-8500.0	-2400.0	-1800.0	-0.401818181818182	0.452727272727273	0.073469387755102	103.566711292219	22.5371317587715	
1512496026663.39	0.132530120481928	0.192771084337349	9.67469879518072	-6800.0	-1800.0	-1800.0	-0.400909090909091	0.470909090909091	0.073469387755102	103.569666662789	22.5371317587715	
1512496026665.34	0.144578313253012	0.192771084337349	9.68674698795181	-7100.0	-1700.0	-1600.0	-0.400909090909091	0.470909090909091	0.073469387755102	103.569666662789	22.5371317587715	
1512496026667.3	0.120481927710843	0.216867469879518	9.67469879518072	-7300.0	-1700.0	-1900.0	-0.400909090909091	0.471818181818182	0.076530612244898	103.569666662789	22.5371317587715	
1512496026669.25	0.132530120481928	0.192771084337349	9.68674698795181	-7600.0	-2700.0	-1900.0	-0.400909090909091	0.471818181818182	0.076530612244898	103.569666662789	22.5371317587715	
1512496026671.2	0.132530120481928	0.192771084337349	9.67469879518072	-8200.0	-2200.0	-3300.0	-0.400909090909091	0.471818181818182	0.076530612244898	103.566711292219	22.5371317587715	
1512496026673.16	0.132530120481928	0.216867469879518	9.69879518072289	-7900.0	-2500.0	-2200.0	-0.4	0.47	0.0755102040816327	103.566711292219	22.5371317587715	
1512496026675.11	0.132530120481928	0.192771084337349	9.68674698795181	-7700.0	-2900.0	-500.0	-0.4	0.47	0.0755102040816327	103.566711292219	22.5371317587715	
1512496026677.06	0.132530120481928	0.204819277108434	9.67469879518072	-8300.0	-3100.0	-1700.0	-0.402727272727273	0.452727272727273	0.0744897959183674	103.566711292219	22.5371317587715	
1512496026679.02	0.132530120481928	0.192771084337349	9.67469879518072	-6300.0	-2900.0	-1700.0	-0.402727272727273	0.452727272727273	0.0744897959183674	103.586439752203	22.6073333834324	
1512496026680.97	0.144578313253012	0.192771084337349	9.68674698795181	-7600.0	-2200.0	300.0	-0.403636363636364	0.47	0.0775510204081633	103.586439752203	22.6073333834324	
1512496026682.92	0.132530120481928	0.192771084337349	9.67469879518072	-8400.0	-2800.0	-1600.0	-0.403636363636364	0.47	0.0775510204081633	103.586439752203	22.6073333834324	
1512496026684.88	0.132530120481928	0.192771084337349	9.68674698795181	-7200.0	-1600.0	-700.0	-0.403636363636364	0.47	0.0775510204081633	103.586439752203	22.6073333834324	
1512496026686.83	0.120481927710843	0.192771084337349	9.68674698795181	-7700.0	-2500.0	-1100.0	-0.396363636363636	0.453636363636364	0.0785714285714286	103.592351384288	22.6073333834324	
1512496026688.78	0.132530120481928	0.192771084337349	9.68674698795181	-8100.0	-3300.0	-1900.0	-0.396363636363636	0.453636363636364	0.0785714285714286	103.592351384288	22.6073333834324	
1512496026690.73	0.120481927710843	0.204819277108434	9.68674698795181	-8800.0	-3600.0	-900.0	-0.4	0.451818181818182	0.076530612244898	103.592351384288	22.6073333834324	
1512496026692.69	0.132530120481928	0.192771084337349	9.67469879518072	-7900.0	-1400.0	-1300.0	-0.4	0.451818181818182	0.076530612244898	103.592351384288	22.6073333834324	
1512496026694.64	0.132530120481928	0.192771084337349	9.68674698795181	-7100.0	-2800.0	-1300.0	-0.401818181818182	0.470909090909091	0.0775510204081633	103.580528123194	22.6073333834324	
1512496026696.59	0.120481927710843	0.180722891566265	9.68674698795181	-7000.0	-2700.0	-1200.0	-0.401818181818182	0.470909090909091	0.0775510204081633	103.580528123194	22.6073333834324	
1512496026698.55	0.144578313253012	0.180722891566265	9.67469879518072	-7800.0	-2000.0	-100.0	-0.401818181818182	0.470909090909091	0.0775510204081633	103.580528123194	22.6073333834324	
1512496026700.5	0.156626506024096	0.204819277108434	9.68674698795181	-8300.0	-1500.0	-1600.0	-0.4	0.449090909090909	0.0744897959183674	103.580528123194	22.6073333834324	
1512496026702.45	0.132530120481928	0.192771084337349	9.66265060240964	-8100.0	-2900.0	-2300.0	-0.4	0.449090909090909	0.0744897959183674	103.580528123194	22.6073333834324	
1512496026704.41	0.132530120481928	0.192771084337349	9.67469879518072	-7400.0	-3100.0	-1900.0	-0.404545454545455	0.450909090909091	0.076530612244898	103.580528123194	22.6073333834324	
1512496026706.36	0.132530120481928	0.180722891566265	9.65060240963856	-7000.0	-3200.0	-1100.0	-0.404545454545455	0.450909090909091	0.076530612244898	103.580528123194	22.6073333834324	
1512496026708.31	0.132530120481928	0.168674698795181	9.66265060240964	-9400.0	-3200.0	-2200.0	-0.400909090909091	0.450909090909091	0.073469387755102	103.580528123194	22.6073333834324	
1512496026710.27	0.132530120481928	0.180722891566265	9.67469879518072	-6700.0	-2500.0	-2100.0	-0.400909090909091	0.450909090909091	0.073469387755102	103.583483937314	22.6073333834324	
1512496026712.22	0.120481927710843	0.192771084337349	9.67469879518072	-7000.0	-2600.0	-1500.0	-0.400909090909091	0.450909090909091	0.073469387755102	103.583483937314	22.6073333834324	
1512496026714.17	0.132530120481928	0.180722891566265	9.66265060240964	-8500.0	-2300.0	-1100.0	-0.401818181818182	0.471818181818182	0.0744897959183674	103.583483937314	22.6073333834324	
1512496026716.13	0.132530120481928	0.180722891566265	9.67469879518072	-6300.0	-3200.0	-1500.0	-0.401818181818182	0.471818181818182	0.0744897959183674	103.583483937314	22.6073333834324	
1512496026718.08	0.120481927710843	0.192771084337349	9.68674698795181	-7400.0	-3000.0	-1300.0	-0.4	0.452727272727273	0.0755102040816327	103.586439752203	22.6073333834324	
1512496026720.03	0.120481927710843	0.180722891566265	9.68674698795181	-8600.0	-2700.0	-1500.0	-0.4	0.452727272727273	0.0755102040816327	103.586439752203	22.6073333834324	
1512496026721.99	0.132530120481928	0.192771084337349	9.66265060240964	-6900.0	-2300.0	-1900.0	-0.400909090909091	0.470909090909091	0.0775510204081633	103.586439752203	22.6073333834324	
1512496026723.94	0.144578313253012	0.180722891566265	9.67469879518072	-7700.0	-1800.0	-2200.0	-0.400909090909091	0.470909090909091	0.0775510204081633	103.586439752203	22.6073333834324	
1512496026725.89	0.120481927710843	0.192771084337349	9.68674698795181	-7000.0	-2700.0	-2200.0	-0.400909090909091	0.470909090909091	0.0775510204081633	103.580528123194	22.6073333834324	
1512496026727.84	0.132530120481928	0.180722891566265	9.67469879518072	-6600.0	-3500.0	-1100.0	-0.4	0.449090909090909	0.076530612244898	103.580528123194	22.6073333834324	
1512496026729.8	0.132530120481928	0.168674698795181	9.67469879518072	-7400.0	-2800.0	-100.0	-0.4	0.449090909090909	0.076530612244898	103.580528123194	22.6073333834324	
1512496026731.75	0.132530120481928	0.192771084337349	9.67469879518072	-8200.0	-2000.0	-2600.0	-0.402727272727273	0.470909090909091	0.0775510204081633	103.580528123194	22.6073333834324	
1512496026733.7	0.132530120481928	0.204819277108434	9.66265060240964	-7300.0	-2200.0	-2800.0	-0.402727272727273	0.470909090909091	0.0775510204081633	103.583483937314	22.6073333834324	
1512496026735.66	0.144578313253012	0.192771084337349	9.68674698795181	-8100.0	-3300.0	-1700.0	-0.402727272727273	0.472727272727273	0.0755102040816327	103.583483937314	22.6073333834324	
1512496026737.61	0.132530120481928	0.192771084337349	9.68674698795181	-7700.0	-1700.0	-1600.0	-0.402727272727273	0.472727272727273	0.0755102040816327	103.583483937314	22.6073333834324	
1512496026739.56	0.120481927710843	0.192771084337349	9.67469879518072	-8300.0	-1000.0	-1800.0	-0.402727272727273	0.472727272727273	0.0755102040816327	103.583483937314	22.6073333834324	
1512496026741.52	0.132530120481928	0.204819277108434	9.67469879518072	-7100.0	-2900.0	-2100.0	-0.401818181818182	0.472727272727273	0.0755102040816327	103.589395567861	22.6073333834324	
1512496026743.47	0.132530120481928	0.192771084337349	9.67469879518072	-7100.0	-3100.0	-1700.0	-0.401818181818182	0.472727272727273	0.0755102040816327	103.589395567861	22.6073333834324	
1512496026745.42	0.132530120481928	0.192771084337349	9.68674698795181	-8500.0	-2300.0	-2300.0	-0.401818181818182	0.471818181818182	0.0755102040816327	103.589395567861	22.6073333834324	
1512496026747.38	0.120481927710843	0.180722891566265	9.67469879518072	-8500.0	-3100.0	-1300.0	-0.401818181818182	0.471818181818182	0.0755102040816327	103.589395567861	22.6073333834324	
1512496026749.33	0.132530120481928	0.192771084337349	9.66265060240964	-7100.0	-2600.0	-2100.0	-0.400909090909091	0.470909090909091	0.0744897959183674	103.592351384288	22.6073333834324	
1512496026751.28	0.132530120481928	0.192771084337349	9.68674698795181	-8300.0	-2100.0	-2300.0	-0.400909090909091	0.470909090909091	0.0744897959183674	103.592351384288	22.6073333834324	
1512496026753.23	0.132530120481928	0.192771084337349	9.66265060240964	-7600.0	-3100.0	-2100.0	-0.400909090909091	0.470909090909091	0.0744897959183674	103.592351384288	22.6073333834324	
1512496026755.19	0.132530120481928	0.180722891566265	9.68674698795181	-8100.0	-2500.0	-2000.0	-0.4	0.448181818181818	0.076530612244898	103.592351384288	22.6073333834324	
1512496026757.14	0.108433734939759	0.180722891566265	9.67469879518072	-9300.0	-3000.0	-1800.0	-0.4	0.448181818181818	0.076530612244898	103.580528123194	22.6073333834324	
1512496026759.09	0.120481927710843	0.192771084337349	9.68674698795181	-7000.0	-2800.0	-800.0	-0.398181818181818	0.450909090909091	0.0785714285714286	103.580528123194	22.6073333834324	
1512496026761.05	0.144578313253012	0.180722891566265	9.68674698795181	-8600.0	-1400.0	-1800.0	-0.398181818181818	0.450909090909091	0.0785714285714286	103.580528123194	22.6073333834324	
1512496026763.0	0.132530120481928	0.180722891566265	9.68674698795181	-7500.0	-3400.0	-1500.0	-0.4	0.451818181818182	0.0775510204081633	103.580528123194	22.6073333834324	
1512496026764.95	0.144578313253012	0.192771084337349	9.67469879518072	-7700.0	-2900.0	-1600.0	-0.4	0.451818181818182	0.0775510204081633	103.577572309844	22.6073333834324	
1512496026766.91	0.132530120481928	0.192771084337349	9.68674698795181	-7900.0	-2800.0	-2000.0	-0.4	0.451818181818182	0.0775510204081633	103.577572309844	22.6073333834324	
1512496026768.86	0.132530120481928	0.192771084337349	9.68674698795181	-7100.0	-2100.0	-1900.0	-0.402727272727273	0.451818181818182	0.0744897959183674	103.577572309844	22.6073333834324	
1512496026770.81	0.120481927710843	0.192771084337349	9.67469879518072	-8400.0	-1900.0	-2200.0	-0.402727272727273	0.451818181818182	0.0744897959183674	103.577572309844	22.6073333834324	
1512496026772.77	0.144578313253012	0.192771084337349	9.67469879518072	-7700.0	-2800.0	-1500.0	-0.398181818181818	0.473636363636364	0.0744897959183674	103.583483937314	22.6073333834324	
1512496026774.72	0.120481927710843	0.192771084337349	9.67469879518072	-7700.0	-3400.0	-900.0	-0.398181818181818	0.473636363636364	0.0744897959183674	103.583483937314	22.6073333834324	
1512496026776.67	0.120481927710843	0.192771084337349	9.67469879518072	-7400.0	-2600.0	-1900.0	-0.400909090909091	0.470909090909091	0.0744897959183674	103.583483937314	22.6073333834324	
1512496026778.63	0.132530120481928	0.204819277108434	9.67469879518072	-7900.0	-2900.0	-1300.0	-0.400909090909091	0.470909090909091	0.0744897959183674	103.583483937314	22.6073333834324	
1512496026780.58	0.120481927710843	0.204819277108434	9.67469879518072	-8300.0	-3500.0	-1200.0	-0.400909090909091	0.470909090909091	0.0744897959183674	103.574616497263	22.6073333834324	
1512496026782.53	0.120481927710843	0.180722891566265	9.68674698795181	-9800.0	-2100.0	-1600.0	-0.400909090909091	0.47	0.0744897959183674	103.574616497263	22.6073333834324	
1512496026784.48	0.120481927710843	0.180722891566265	9.67469879518072	-8300.0	-1200.0	-1500.0	-0.400909090909091	0.47	0.0744897959183674	103.574616497263	22.6073333834324	
1512496026786.44	0.120481927710843	0.192771084337349	9.69879518072289	-6800.0	-2200.0	-2900.0	-0.400909090909091	0.451818181818182	0.0744897959183674	103.574616497263	22.6073333834324	
1512496026788.39	0.132530120481928	0.192771084337349	9.68674698795181	-7400.0	-2200.0	-1100.0	-0.400909090909091	0.451818181818182	0.0744897959183674	103.583483937314	22.6073333834324	
1512496026790.34	0.132530120481928	0.192771084337349	9.67469879518072	-7900.0	-3700.0	-1800.0	-0.4	0.471818181818182	0.076530612244898	103.583483937314	22.6073333834324	
1512496026792.3	0.132530120481928	0.192771084337349	9.67469879518072	-9300.0	-3100.0	-1900.0	-0.4	0.471818181818182	0.076530612244898	103.583483937314	22.6073333834324	
1512496026794.25	0.132530120481928	0.192771084337349	9.67469879518072	-7300.0	-3200.0	0.0	-0.4	0.471818181818182	0.076530612244898	103.583483937314	22.6073333834324	
1512496026796.2	0.132530120481928	0.192771084337349	9.67469879518072	-8100.0	-3300.0	-2800.0	-0.399090909090909	0.470909090909091	0.0836734693877551	103.577572309844	22.6073333834324	
1512496026798.16	0.144578313253012	0.204819277108434	9.67469879518072	-8700.0	-2700.0	-1300.0	-0.399090909090909	0.470909090909091	0.0836734693877551	103.577572309844	22.6073333834324	
1512496026800.11	0.144578313253012	0.180722891566265	9.68674698795181	-9100.0	-3100.0	-1100.0	-0.4	0.469090909090909	0.076530612244898	103.577572309844	22.6073333834324	
1512496026802.06	0.132530120481928	0.192771084337349	9.68674698795181	-6700.0	-3500.0	-2200.0	-0.4	0.469090909090909	0.076530612244898	103.577572309844	22.6073333834324	
1512496026804.02	0.132530120481928	0.192771084337349	9.68674698795181	-7500.0	-2100.0	-2700.0	-0.400909090909091	0.47	0.076530612244898	103.580528123194	22.6073333834324	
1512496026805.97	0.120481927710843	0.204819277108434	9.68674698795181	-7400.0	-2700.0	-1500.0	-0.400909090909091	0.47	0.076530612244898	103.580528123194	22.6073333834324	
1512496026807.92	0.120481927710843	0.180722891566265	9.67469879518072	-8000.0	-2800.0	-2600.0	-0.400909090909091	0.47	0.076530612244898	103.580528123194	22.6073333834324	
1512496026809.88	0.132530120481928	0.180722891566265	9.66265060240964	-8300.0	-2800.0	0.0	-0.400909090909091	0.451818181818182	0.0785714285714286	103.580528123194	22.6073333834324	
1512496026811.83	0.144578313253012	0.192771084337349	9.67469879518072	-8200.0	-2600.0	-2700.0	-0.400909090909091	0.451818181818182	0.0785714285714286	103.580528123194	22.6073333834324	
1512496026813.78	0.144578313253012	0.204819277108434	9.68674698795181	-7100.0	-2600.0	-1400.0	-0.402727272727273	0.451818181818182	0.0755102040816327	103.580528123194	22.6073333834324	
1512496026815.73	0.132530120481928	0.180722891566265	9.68674698795181	-10300.0	-2600.0	-1700.0	-0.402727272727273	0.451818181818182	0.0755102040816327	103.580528123194	22.6073333834324	
1512496026817.69	0.120481927710843	0.192771084337349	9.67469879518072	-7500.0	-1800.0	-1500.0	-0.401818181818182	0.471818181818182	0.0744897959183674	103.580528123194	22.6073333834324	
1512496026819.64	0.132530120481928	0.192771084337349	9.67469879518072	-7800.0	-1500.0	-2800.0	-0.401818181818182	0.471818181818182	0.0744897959183674	103.580528123194	22.6073333834324	
1512496026821.59	0.120481927710843	0.204819277108434	9.67469879518072	-8500.0	-1100.0	-2800.0	-0.401818181818182	0.471818181818182	0.0744897959183674	103.580528123194	22.6073333834324	
1512496026823.55	0.132530120481928	0.192771084337349	9.67469879518072	-8900.0	-2100.0	-1400.0	-0.400909090909091	0.470909090909091	0.0755102040816327	103.580528123194	22.6073333834324	
1512496026825.5	0.144578313253012	0.180722891566265	9.67469879518072	-8300.0	-2300.0	-2200.0	-0.400909090909091	0.470909090909091	0.0755102040816327	103.580528123194	22.6073333834324	
1512496026827.45	0.144578313253012	0.204819277108434	9.67469879518072	-8600.0	-2200.0	-1800.0	-0.401818181818182	0.45	0.0755102040816327	103.589395567861	22.6073333834324	
1512496026829.41	0.132530120481928	0.204819277108434	9.67469879518072	-7900.0	-2400.0	-1600.0	-0.401818181818182	0.45	0.0755102040816327	103.589395567861	22.6073333834324	
1512496026831.36	0.132530120481928	0.180722891566265	9.67469879518072	-8100.0	-2500.0	-2400.0	-0.397272727272727	0.450909090909091	0.0826530612244898	103.589395567861	22.6073333834324	
1512496026833.31	0.156626506024096	0.192771084337349	9.68674698795181	-6900.0	-2100.0	-2100.0	-0.397272727272727	0.450909090909091	0.0826530612244898	103.589395567861	22.6073333834324	
1512496026835.27	0.132530120481928	0.180722891566265	9.67469879518072	-7900.0	-3300.0	-1100.0	-0.397272727272727	0.450909090909091	0.0826530612244898	103.574616497263	22.6073333834324	
1512496026837.22	0.132530120481928	0.180722891566265	9.68674698795181	-8200.0	-2500.0	-1500.0	-0.401818181818182	0.472727272727273	0.076530612244898	103.574616497263	22.6073333834324	
1512496026839.17	0.144578313253012	0.192771084337349	9.68674698795181	-6800.0	-1800.0	-1600.0	-0.401818181818182	0.472727272727273	0.076530612244898	103.574616497263	22.6073333834324	
1512496026841.13	0.144578313253012	0.192771084337349	9.68674698795181	-8200.0	-1600.0	-800.0	-0.4	0.472727272727273	0.0775510204081633	103.574616497263	22.6073333834324	
1512496026843.08	0.132530120481928	0.192771084337349	9.67469879518072	-7800.0	-1300.0	-2100.0	-0.4	0.472727272727273	0.0775510204081633	103.580528123194	22.6073333834324	
1512496026845.03	0.120481927710843	0.180722891566265	9.69879518072289	-7000.0	-2300.0	-1800.0	-0.404545454545455	0.448181818181818	0.076530612244898	103.580528123194	22.6073333834324	
1512496026846.99	0.144578313253012	0.180722891566265	9.68674698795181	-8400.0	-2000.0	-1200.0	-0.404545454545455	0.448181818181818	0.076530612244898	103.580528123194	22.6073333834324	
1512496026848.94	0.120481927710843	0.180722891566265	9.69879518072289	-8200.0	-2200.0	-1400.0	-0.404545454545455	0.448181818181818	0.076530612244898	103.580528123194	22.6073333834324	
1512496026850.89	0.132530120481928	0.192771084337349	9.67469879518072	-9600.0	-2300.0	-1600.0	-0.401818181818182	0.470909090909091	0.0755102040816327	103.580528123194	22.6073333834324	
1512496026852.84	0.132530120481928	0.192771084337349	9.67469879518072	-7900.0	-2100.0	-1800.0	-0.401818181818182	0.470909090909091	0.0755102040816327	103.580528123194	22.6073333834324	
1512496026854.8	0.144578313253012	0.192771084337349	9.67469879518072	-6900.0	-3200.0	-1900.0	-0.400909090909091	0.469090909090909	0.076530612244898	103.580528123194	22.6073333834324	
1512496026856.75	0.144578313253012	0.192771084337349	9.68674698795181	-6700.0	-2200.0	-1400.0	-0.400909090909091	0.469090909090909	0.076530612244898	103.580528123194	22.6073333834324	
1512496026858.7	0.132530120481928	0.204819277108434	9.68674698795181	-6900.0	-2500.0	-1400.0	-0.402727272727273	0.47	0.0744897959183674	103.580528123194	22.6073333834324	
1512496026860.66	0.132530120481928	0.192771084337349	9.67469879518072	-7800.0	-1800.0	-1700.0	-0.402727272727273	0.47	0.0744897959183674	103.580528123194	22.6073333834324	
1512496026862.61	0.120481927710843	0.168674698795181	9.69879518072289	-7700.0	-1900.0	-1100.0	-0.402727272727273	0.47	0.0744897959183674	103.580528123194	22.6073333834324	
1512496026864.56	0.120481927710843	0.192771084337349	9.68674698795181	-8500.0	-2500.0	-1500.0	-0.402727272727273	0.470909090909091	0.0775510204081633	103.580528123194	22.6073333834324	
1512496026866.52	0.120481927710843	0.192771084337349	9.68674698795181	-9000.0	-3300.0	-2300.0	-0.402727272727273	0.470909090909091	0.0775510204081633	103.580528123194	22.6073333834324	
1512496026868.47	0.120481927710843	0.180722891566265	9.67469879518072	-8100.0	-2500.0	-1700.0	-0.402727272727273	0.452727272727273	0.0775510204081633	103.580528123194	22.6073333834324	
1512496026870.42	0.132530120481928	0.204819277108434	9.67469879518072	-8700.0	-2000.0	-1800.0	-0.402727272727273	0.452727272727273	0.0775510204081633	103.580528123194	22.6073333834324	
1512496026872.38	0.132530120481928	0.180722891566265	9.67469879518072	-9000.0	-2700.0	-1300.0	-0.4	0.452727272727273	0.0775510204081633	103.580528123194	22.6073333834324	
1512496026874.33	0.144578313253012	0.192771084337349	9.68674698795181	-7800.0	-2800.0	-900.0	-0.4	0.452727272727273	0.0775510204081633	103.574616497263	22.6073333834324	
1512496026876.28	0.144578313253012	0.180722891566265	9.66265060240964	-7300.0	-2300.0	-1400.0	-0.4	0.452727272727273	0.0775510204081633	103.574616497263	22.6073333834324	
1512496026878.23	0.144578313253012	0.192771084337349	9.67469879518072	-8000.0	-3600.0	-2100.0	-0.396363636363636	0.47	0.076530612244898	103.574616497263	22.6073333834324	
1512496026880.19	0.120481927710843	0.180722891566265	9.67469879518072	-7300.0	-2100.0	-700.0	-0.396363636363636	0.47	0.076530612244898	103.574616497263	22.6073333834324	
1512496026882.14	0.132530120481928	0.192771084337349	9.68674698795181	-8500.0	-1900.0	-1100.0	-0.401818181818182	0.468181818181818	0.0755102040816327	103.580528123194	22.6073333834324	
1512496026884.09	0.144578313253012	0.192771084337349	9.67469879518072	-8000.0	-3200.0	-700.0	-0.401818181818182	0.468181818181818	0.0755102040816327	103.580528123194	22.6073333834324	
1512496026886.05	0.156626506024096	0.168674698795181	9.68674698795181	-8400.0	-1800.0	-2300.0	-0.402727272727273	0.470909090909091	0.0775510204081633	103.580528123194	22.6073333834324	
1512496026888.0	0.132530120481928	0.192771084337349	9.67469879518072	-8800.0	-700.0	-1000.0	-0.402727272727273	0.470909090909091	0.0775510204081633	103.580528123194	22.6073333834324	
1512496026889.95	0.132530120481928	0.180722891566265	9.68674698795181	-7500.0	-2300.0	-1200.0	-0.402727272727273	0.470909090909091	0.0775510204081633	103.580528123194	22.6073333834324	
1512496026891.91	0.120481927710843	0.180722891566265	9.68674698795181	-7900.0	-2400.0	-1700.0	-0.403636363636364	0.471818181818182	0.0775510204081633	103.580528123194	22.6073333834324	
1512496026893.86	0.120481927710843	0.180722891566265	9.68674698795181	-7600.0	-3300.0	-1400.0	-0.403636363636364	0.471818181818182	0.0775510204081633	103.580528123194	22.6073333834324	
1512496026895.81	0.144578313253012	0.192771084337349	9.68674698795181	-8300.0	-2400.0	-2100.0	-0.400909090909091	0.471818181818182	0.0744897959183674	103.580528123194	22.6073333834324	
1512496026897.77	0.144578313253012	0.180722891566265	9.67469879518072	-8800.0	-2300.0	-1000.0	-0.400909090909091	0.471818181818182	0.0744897959183674	103.583483937314	22.6073333834324	
1512496026899.72	0.132530120481928	0.204819277108434	9.67469879518072	-8600.0	-2300.0	-1400.0	-0.402727272727273	0.471818181818182	0.0755102040816327	103.583483937314	22.6073333834324	
1512496026901.67	0.120481927710843	0.180722891566265	9.67469879518072	-8000.0	-2500.0	-1700.0	-0.402727272727273	0.471818181818182	0.0755102040816327	103.583483937314	22.6073333834324	
1512496026903.63	0.120481927710843	0.192771084337349	9.68674698795181	-6300.0	-2200.0	-1700.0	-0.402727272727273	0.471818181818182	0.0755102040816327	103.583483937314	22.6073333834324	
1512496026905.58	0.108433734939759	0.180722891566265	9.67469879518072	-8300.0	-2400.0	-1700.0	-0.402727272727273	0.451818181818182	0.0744897959183674	103.574616497263	22.6073333834324	
1512496026907.53	0.120481927710843	0.180722891566265	9.67469879518072	-7100.0	-3400.0	-100.0	-0.402727272727273	0.451818181818182	0.0744897959183674	103.574616497263	22.6073333834324	
1512496026909.49	0.132530120481928	0.192771084337349	9.67469879518072	-8000.0	-2100.0	-1500.0	-0.398181818181818	0.470909090909091	0.0775510204081633	103.574616497263	22.6073333834324	
1512496026911.44	0.144578313253012	0.192771084337349	9.67469879518072	-8200.0	-2600.0	-2100.0	-0.398181818181818	0.470909090909091	0.0775510204081633	103.574616497263	22.6073333834324	
1512496026913.39	0.132530120481928	0.168674698795181	9.67469879518072	-8500.0	-2000.0	-2000.0	-0.400909090909091	0.473636363636364	0.076530612244898	103.574616497263	22.6073333834324	
1512496026915.34	0.132530120481928	0.180722891566265	9.68674698795181	-8600.0	-2700.0	-1000.0	-0.400909090909091	0.473636363636364	0.076530612244898	103.574616497263	22.6073333834324	
1512496026917.3	0.144578313253012	0.192771084337349	9.68674698795181	-7500.0	-2600.0	-800.0	-0.400909090909091	0.473636363636364	0.076530612244898	103.574616497263	22.6073333834324	
1512496026919.25	0.144578313253012	0.204819277108434	9.68674698795181	-7800.0	-2500.0	-900.0	-0.4	0.472727272727273	0.0775510204081633	103.574616497263	22.6073333834324	
1512496026921.2	0.132530120481928	0.180722891566265	9.67469879518072	-7500.0	-1300.0	-900.0	-0.4	0.472727272727273	0.0775510204081633	103.580528123194	22.6073333834324	
1512496026923.16	0.132530120481928	0.192771084337349	9.68674698795181	-8000.0	-3400.0	-1900.0	-0.400909090909091	0.469090909090909	0.0744897959183674	103.580528123194	22.6073333834324	
1512496026925.11	0.132530120481928	0.192771084337349	9.67469879518072	-7000.0	-1200.0	-900.0	-0.400909090909091	0.469090909090909	0.0744897959183674	103.580528123194	22.6073333834324	
1512496026927.06	0.144578313253012	0.180722891566265	9.67469879518072	-7300.0	-2300.0	-1100.0	-0.400909090909091	0.469090909090909	0.0755102040816327	103.580528123194	22.6073333834324	
1512496026929.02	0.132530120481928	0.204819277108434	9.68674698795181	-7600.0	-2000.0	-1600.0	-0.400909090909091	0.469090909090909	0.0755102040816327	103.583483937314	22.6073333834324	
1512496026930.97	0.132530120481928	0.192771084337349	9.67469879518072	-9500.0	-2900.0	-2300.0	-0.400909090909091	0.469090909090909	0.0755102040816327	103.583483937314	22.6073333834324	
1512496026932.92	0.132530120481928	0.204819277108434	9.68674698795181	-6400.0	-3300.0	-2600.0	-0.4	0.450909090909091	0.073469387755102	103.583483937314	22.6073333834324	
1512496026934.88	0.120481927710843	0.192771084337349	9.68674698795181	-6600.0	-2900.0	-1300.0	-0.4	0.450909090909091	0.073469387755102	103.583483937314	22.6073333834324	
1512496026936.83	0.120481927710843	0.192771084337349	9.67469879518072	-8600.0	-3100.0	-1200.0	-0.400909090909091	0.471818181818182	0.076530612244898	103.586439752203	22.6073333834324	
1512496026938.78	0.132530120481928	0.192771084337349	9.67469879518072	-8300.0	-2200.0	-2900.0	-0.400909090909091	0.471818181818182	0.076530612244898	103.586439752203	22.6073333834324	
1512496026940.73	0.132530120481928	0.204819277108434	9.68674698795181	-8100.0	-1700.0	-1400.0	-0.401818181818182	0.450909090909091	0.0755102040816327	103.586439752203	22.6073333834324	
1512496026942.69	0.120481927710843	0.180722891566265	9.68674698795181	-7300.0	-1200.0	-1200.0	-0.401818181818182	0.450909090909091	0.0755102040816327	103.586439752203	22.6073333834324	
1512496026944.64	0.120481927710843	0.192771084337349	9.68674698795181	-9200.0	-2600.0	-2100.0	-0.401818181818182	0.450909090909091	0.0755102040816327	103.580528123194	22.6073333834324	
1512496026946.59	0.132530120481928	0.192771084337349	9.67469879518072	-8000.0	-3500.0	-1500.0	-0.396363636363636	0.452727272727273	0.0826530612244898	103.580528123194	22.6073333834324	
1512496026948.55	0.132530120481928	0.180722891566265	9.68674698795181	-8700.0	-2900.0	-2600.0	-0.396363636363636	0.452727272727273	0.0826530612244898	103.580528123194	22.6073333834324	
1512496026950.5	0.132530120481928	0.204819277108434	9.67469879518072	-7800.0	-2900.0	-2000.0	-0.396363636363636	0.470909090909091	0.0846938775510204	103.580528123194	22.6073333834324	
1512496026952.45	0.132530120481928	0.204819277108434	9.67469879518072	-7600.0	-2200.0	-1200.0	-0.396363636363636	0.470909090909091	0.0846938775510204	103.580528123194	22.6073333834324	
1512496026954.41	0.132530120481928	0.204819277108434	9.68674698795181	-8400.0	-2300.0	-1600.0	-0.4	0.472727272727273	0.0795918367346939	103.580528123194	22.6073333834324	
1512496026956.36	0.132530120481928	0.204819277108434	9.67469879518072	-7900.0	-1800.0	-1400.0	-0.4	0.472727272727273	0.0795918367346939	103.580528123194	22.6073333834324	
1512496026958.31	0.132530120481928	0.180722891566265	9.67469879518072	-9000.0	-1900.0	-2000.0	-0.4	0.472727272727273	0.0795918367346939	103.580528123194	22.6073333834324	
1512496026960.27	0.120481927710843	0.192771084337349	9.67469879518072	-8300.0	-2900.0	-1700.0	-0.398181818181818	0.472727272727273	0.0785714285714286	103.574616497263	22.6073333834324	
1512496026962.22	0.132530120481928	0.204819277108434	9.68674698795181	-7700.0	-1900.0	-900.0	-0.398181818181818	0.472727272727273	0.0785714285714286	103.574616497263	22.6073333834324	
1512496026964.17	0.132530120481928	0.204819277108434	9.68674698795181	-7800.0	-2400.0	-800.0	-0.4	0.471818181818182	0.0744897959183674	103.574616497263	22.6073333834324	
1512496026966.13	0.120481927710843	0.192771084337349	9.67469879518072	-7500.0	-3700.0	-2400.0	-0.4	0.471818181818182	0.0744897959183674	103.574616497263	22.6073333834324	
1512496026968.08	0.132530120481928	0.180722891566265	9.68674698795181	-8100.0	-2200.0	-1300.0	-0.4	0.470909090909091	0.0744897959183674	103.583483937314	22.6073333834324	
1512496026970.03	0.132530120481928	0.192771084337349	9.67469879518072	-9400.0	-2200.0	-1600.0	-0.4	0.470909090909091	0.0744897959183674	103.583483937314	22.6073333834324	
1512496026971.99	0.132530120481928	0.192771084337349	9.67469879518072	-8400.0	-3200.0	-1000.0	-0.4	0.470909090909091	0.0744897959183674	103.583483937314	22.6073333834324	
1512496026973.94	0.132530120481928	0.180722891566265	9.68674698795181	-7800.0	-2300.0	-2100.0	-0.400909090909091	0.45	0.0755102040816327	103.583483937314	22.6073333834324	
1512496026975.89	0.120481927710843	0.180722891566265	9.68674698795181	-8300.0	-1900.0	-800.0	-0.400909090909091	0.45	0.0755102040816327	103.583483937314	22.6073333834324	
1512496026977.84	0.132530120481928	0.180722891566265	9.67469879518072	-7600.0	-2800.0	-700.0	-0.4	0.450909090909091	0.0755102040816327	103.583483937314	22.6073333834324	
1512496026979.8	0.120481927710843	0.192771084337349	9.68674698795181	-9600.0	-2400.0	-2300.0	-0.4	0.450909090909091	0.0755102040816327	103.583483937314	22.6073333834324	
1512496026981.75	0.132530120481928	0.192771084337349	9.69879518072289	-8000.0	-2800.0	-900.0	-0.396363636363636	0.449090909090909	0.0857142857142857	103.583483937314	22.6073333834324	
1512496026983.7	0.120481927710843	0.192771084337349	9.68674698795181	-7200.0	-3400.0	-1400.0	-0.396363636363636	0.449090909090909	0.0857142857142857	103.589395567861	22.6073333834324	
1512496026985.66	0.144578313253012	0.192771084337349	9.68674698795181	-8300.0	-2300.0	-2200.0	-0.396363636363636	0.449090909090909	0.0857142857142857	103.589395567861	22.6073333834324	
1512496026987.61	0.132530120481928	0.180722891566265	9.68674698795181	-8600.0	-2400.0	-1900.0	-0.396363636363636	0.468181818181818	0.0785714285714286	103.589395567861	22.6073333834324	
1512496026989.56	0.144578313253012	0.168674698795181	9.68674698795181	-7900.0	-3800.0	-1900.0	-0.396363636363636	0.468181818181818	0.0785714285714286	103.589395567861	22.6073333834324	
1512496026991.52	0.132530120481928	0.168674698795181	9.68674698795181	-8000.0	-2400.0	-2000.0	-0.398181818181818	0.452727272727273	0.076530612244898	103.583483937314	22.6073333834324	
1512496026993.47	0.120481927710843	0.180722891566265	9.68674698795181	-8600.0	-3200.0	-1500.0	-0.398181818181818	0.452727272727273	0.076530612244898	103.583483937314	22.6073333834324	
1512496026995.42	0.144578313253012	0.180722891566265	9.68674698795181	-8300.0	-3600.0	-1400.0	-0.401818181818182	0.471818181818182	0.0785714285714286	103.583483937314	22.6073333834324	
1512496026997.38	0.132530120481928	0.180722891566265	9.69879518072289	-7600.0	-1900.0	-1000.0	-0.401818181818182	0.471818181818182	0.0785714285714286	103.583483937314	22.6073333834324	
1512496026999.33	0.120481927710843	0.204819277108434	9.68674698795181	-7700.0	-2700.0	-1300.0	-0.401818181818182	0.471818181818182	0.0785714285714286	103.574616497263	22.6073333834324	
1512496027001.28	0.132530120481928	0.192771084337349	9.68674698795181	-6700.0	-3500.0	-3500.0	-0.400909090909091	0.471818181818182	0.076530612244898	103.574616497263	22.6073333834324	
1512496027003.23	0.120481927710843	0.180722891566265	9.68674698795181	-8000.0	-3200.0	-800.0	-0.400909090909091	0.471818181818182	0.076530612244898	103.574616497263	22.6073333834324	
1512496027005.19	0.132530120481928	0.180722891566265	9.67469879518072	-8900.0	-1500.0	-1200.0	-0.400909090909091	0.45	0.0755102040816327	103.574616497263	22.6073333834324	
1512496027007.14	0.132530120481928	0.192771084337349	9.66265060240964	-7300.0	-1800.0	-1500.0	-0.400909090909091	0.45	0.0755102040816327	103.586439752203	22.6073333834324	
1512496027009.09	0.132530120481928	0.204819277108434	9.68674698795181	-6500.0	-2100.0	-1400.0	-0.4	0.470909090909091	0.073469387755102	103.586439752203	22.6073333834324	
1512496027011.05	0.120481927710843	0.192771084337349	9.68674698795181	-7900.0	-3200.0	-2200.0	-0.4	0.470909090909091	0.073469387755102	103.586439752203	22.6073333834324	
1512496027013.0	0.144578313253012	0.192771084337349	9.67469879518072	-8400.0	-2000.0	-1200.0	-0.4	0.470909090909091	0.073469387755102	103.586439752203	22.6073333834324	
1512496027014.95	0.144578313253012	0.180722891566265	9.67469879518072	-8600.0	-2100.0	-2200.0	-0.4	0.470909090909091	0.0744897959183674	103.586439752203	22.6073333834324	
1512496027016.91	0.132530120481928	0.204819277108434	9.69879518072289	-8700.0	-2900.0	-800.0	-0.4	0.470909090909091	0.0744897959183674	103.586439752203	22.6073333834324	
1512496027018.86	0.144578313253012	0.204819277108434	9.66265060240964	-7600.0	-2100.0	-1700.0	-0.395454545454545	0.449090909090909	0.0795918367346939	103.586439752203	22.6073333834324	
1512496027020.81	0.120481927710843	0.216867469879518	9.71084337349398	-8900.0	-2300.0	-1500.0	-0.395454545454545	0.449090909090909	0.0795918367346939	103.586439752203	22.6073333834324	
1512496027022.77	0.132530120481928	0.204819277108434	9.69879518072289	-7700.0	-2200.0	-1800.0	-0.401818181818182	0.472727272727273	0.0785714285714286	103.571660685451	22.6073333834324	
1512496027024.72	0.120481927710843	0.192771084337349	9.69879518072289	-8100.0	-2100.0	-1600.0	-0.401818181818182	0.472727272727273	0.0785714285714286	103.571660685451	22.6073333834324	
1512496027026.67	0.144578313253012	0.180722891566265	9.68674698795181	-6300.0	-3300.0	-2600.0	-0.401818181818182	0.472727272727273	0.0785714285714286	103.571660685451	22.6073333834324	
1512496027028.63	0.132530120481928	0.180722891566265	9.66265060240964	-7600.0	-1700.0	-1600.0	-0.4	0.472727272727273	0.0775510204081633	103.571660685451	22.6073333834324	
1512496027030.58	0.132530120481928	0.192771084337349	9.68674698795181	-9000.0	-3500.0	-600.0	-0.4	0.472727272727273	0.0775510204081633	103.580528123194	22.6073333834324	
1512496027032.53	0.120481927710843	0.180722891566265	9.67469879518072	-6800.0	-2200.0	-1400.0	-0.400909090909091	0.470909090909091	0.0755102040816327	103.580528123194	22.6073333834324	
1512496027034.48	0.132530120481928	0.192771084337349	9.66265060240964	-6800.0	-2100.0	-2200.0	-0.400909090909091	0.470909090909091	0.0755102040816327	103.580528123194	22.6073333834324	
1512496027036.44	0.120481927710843	0.180722891566265	9.66265060240964	-8000.0	-2600.0	-2100.0	-0.400909090909091	0.450909090909091	0.0755102040816327	103.580528123194	22.6073333834324	
1512496027038.39	0.132530120481928	0.180722891566265	9.68674698795181	-8000.0	-2100.0	-1900.0	-0.400909090909091	0.450909090909091	0.0755102040816327	103.580528123194	22.6073333834324	
1512496027040.34	0.120481927710843	0.180722891566265	9.66265060240964	-7400.0	-1600.0	-1700.0	-0.400909090909091	0.450909090909091	0.0755102040816327	103.580528123194	22.6073333834324	
1512496027042.3	0.132530120481928	0.168674698795181	9.68674698795181	-7100.0	-2100.0	-1300.0	-0.400909090909091	0.470909090909091	0.0744897959183674	103.580528123194	22.6073333834324	
1512496027044.25	0.120481927710843	0.168674698795181	9.66265060240964	-6300.0	-2300.0	-2500.0	-0.400909090909091	0.470909090909091	0.0744897959183674	103.580528123194	22.6073333834324	
1512496027046.2	0.132530120481928	0.180722891566265	9.66265060240964	-8200.0	-2300.0	-1800.0	-0.401818181818182	0.470909090909091	0.0755102040816327	103.580528123194	22.6073333834324	
1512496027048.16	0.108433734939759	0.180722891566265	9.67469879518072	-8200.0	-3500.0	-2400.0	-0.401818181818182	0.470909090909091	0.0755102040816327	103.580528123194	22.6073333834324	
1512496027050.11	0.108433734939759	0.180722891566265	9.67469879518072	-6500.0	-2200.0	-2300.0	-0.403636363636364	0.468181818181818	0.0744897959183674	103.580528123194	22.6073333834324	
1512496027052.06	0.132530120481928	0.180722891566265	9.67469879518072	-7500.0	-2600.0	-600.0	-0.403636363636364	0.468181818181818	0.0744897959183674	103.580528123194	22.6073333834324	
1512496027054.02	0.120481927710843	0.180722891566265	9.67469879518072	-8900.0	-3100.0	-1400.0	-0.403636363636364	0.468181818181818	0.0744897959183674	103.571660685451	22.6073333834324	
1512496027055.97	0.120481927710843	0.204819277108434	9.67469879518072	-7000.0	-3000.0	-1500.0	-0.396363636363636	0.472727272727273	0.0806122448979592	103.571660685451	22.6073333834324	
1512496027057.92	0.132530120481928	0.180722891566265	9.67469879518072	-7800.0	-2500.0	-2000.0	-0.396363636363636	0.472727272727273	0.0806122448979592	103.571660685451	22.6073333834324	
1512496027059.88	0.120481927710843	0.180722891566265	9.68674698795181	-8700.0	-2400.0	-1900.0	-0.397272727272727	0.471818181818182	0.0785714285714286	103.571660685451	22.6073333834324	
1512496027061.83	0.120481927710843	0.180722891566265	9.67469879518072	-6900.0	-2100.0	-500.0	-0.397272727272727	0.471818181818182	0.0785714285714286	103.580528123194	22.6073333834324	
1512496027063.78	0.132530120481928	0.180722891566265	9.67469879518072	-7400.0	-2600.0	-1500.0	-0.400909090909091	0.473636363636364	0.0755102040816327	103.580528123194	22.6073333834324	
1512496027065.73	0.132530120481928	0.192771084337349	9.67469879518072	-8400.0	-1500.0	-1600.0	-0.400909090909091	0.473636363636364	0.0755102040816327	103.580528123194	22.6073333834324	
1512496027067.69	0.120481927710843	0.180722891566265	9.67469879518072	-8300.0	-3300.0	-2100.0	-0.400909090909091	0.473636363636364	0.0755102040816327	103.580528123194	22.6073333834324	
1512496027069.64	0.132530120481928	0.192771084337349	9.67469879518072	-7700.0	-1700.0	-2600.0	-0.400909090909091	0.454545454545455	0.076530612244898	103.580528123194	22.6073333834324	
1512496027071.59	0.144578313253012	0.168674698795181	9.67469879518072	-7900.0	-2800.0	-1900.0	-0.400909090909091	0.454545454545455	0.076530612244898	103.580528123194	22.6073333834324	
1512496027073.55	0.144578313253012	0.192771084337349	9.66265060240964	-7200.0	-2600.0	-1400.0	-0.403636363636364	0.471818181818182	0.0744897959183674	103.580528123194	22.6073333834324	
1512496027075.5	0.132530120481928	0.180722891566265	9.68674698795181	-8200.0	-2400.0	-1400.0	-0.403636363636364	0.471818181818182	0.0744897959183674	103.580528123194	22.6073333834324	
1512496027077.45	0.132530120481928	0.204819277108434	9.67469879518072	-9400.0	-3400.0	-1900.0	-0.402727272727273	0.472727272727273	0.0744897959183674	103.568704874408	22.6073333834324	
1512496027079.41	0.132530120481928	0.192771084337349	9.68674698795181	-8200.0	-2500.0	-1200.0	-0.402727272727273	0.472727272727273	0.0744897959183674	103.568704874408	22.6073333834324	
1512496027081.36	0.132530120481928	0.192771084337349	9.68674698795181	-9000.0	-2200.0	-200.0	-0.402727272727273	0.472727272727273	0.0744897959183674	103.568704874408	22.6073333834324	
1512496027083.31	0.144578313253012	0.180722891566265	9.68674698795181	-8100.0	-2000.0	-1400.0	-0.399090909090909	0.472727272727273	0.076530612244898	103.568704874408	22.6073333834324	
1512496027085.27	0.120481927710843	0.192771084337349	9.68674698795181	-7900.0	-2500.0	-2200.0	-0.399090909090909	0.472727272727273	0.076530612244898	103.574616497263	22.6073333834324	
1512496027087.22	0.144578313253012	0.180722891566265	9.68674698795181	-8400.0	-2900.0	-900.0	-0.401818181818182	0.451818181818182	0.0755102040816327	103.574616497263	22.6073333834324	
1512496027089.17	0.132530120481928	0.192771084337349	9.66265060240964	-7000.0	-1800.0	-1700.0	-0.401818181818182	0.451818181818182	0.0755102040816327	103.574616497263	22.6073333834324	
1512496027091.13	0.108433734939759	0.180722891566265	9.71084337349398	-8400.0	-2400.0	-1300.0	-0.397272727272727	0.47	0.0795918367346939	103.574616497263	22.6073333834324	
1512496027093.08	0.144578313253012	0.192771084337349	9.67469879518072	-9000.0	-2300.0	-1300.0	-0.397272727272727	0.47	0.0795918367346939	103.577572309844	22.6073333834324	
1512496027095.03	0.108433734939759	0.180722891566265	9.67469879518072	-7200.0	-4700.0	-1000.0	-0.397272727272727	0.47	0.0795918367346939	103.577572309844	22.6073333834324	
1512496027096.99	0.144578313253012	0.180722891566265	9.71084337349398	-7300.0	-2000.0	-1800.0	-0.4	0.470909090909091	0.0785714285714286	103.577572309844	22.6073333834324	
1512496027098.94	0.132530120481928	0.180722891566265	9.68674698795181	-6700.0	-2000.0	-1500.0	-0.4	0.470909090909091	0.0785714285714286	103.577572309844	22.6073333834324	
1512496027100.89	0.144578313253012	0.204819277108434	9.68674698795181	-7100.0	-2200.0	-1200.0	-0.4	0.451818181818182	0.0785714285714286	103.583483937314	22.6073333834324	
1512496027102.84	0.132530120481928	0.192771084337349	9.67469879518072	-7100.0	-3100.0	-1400.0	-0.4	0.451818181818182	0.0785714285714286	103.583483937314	22.6073333834324	
1512496027104.8	0.144578313253012	0.204819277108434	9.68674698795181	-8700.0	-2800.0	-2300.0	-0.403636363636364	0.471818181818182	0.0755102040816327	103.583483937314	22.6073333834324	
1512496027106.75	0.132530120481928	0.192771084337349	9.67469879518072	-9000.0	-2000.0	-900.0	-0.403636363636364	0.471818181818182	0.0755102040816327	103.583483937314	22.6073333834324	
1512496027108.7	0.132530120481928	0.192771084337349	9.66265060240964	-7100.0	-3500.0	-700.0	-0.403636363636364	0.471818181818182	0.0755102040816327	103.571660685451	22.6073333834324	
1512496027110.66	0.144578313253012	0.204819277108434	9.68674698795181	-8800.0	-3100.0	-1800.0	-0.401818181818182	0.471818181818182	0.0744897959183674	103.571660685451	22.6073333834324	
1512496027112.61	0.132530120481928	0.192771084337349	9.65060240963856	-8100.0	-2400.0	-1000.0	-0.401818181818182	0.471818181818182	0.0744897959183674	103.571660685451	22.6073333834324	
1512496027114.56	0.132530120481928	0.192771084337349	9.67469879518072	-8200.0	-1900.0	-2000.0	-0.400909090909091	0.450909090909091	0.0744897959183674	103.571660685451	22.6073333834324	
1512496027116.52	0.144578313253012	0.192771084337349	9.68674698795181	-7900.0	-4100.0	-700.0	-0.400909090909091	0.450909090909091	0.0744897959183674	103.577572309844	22.6073333834324	
1512496027118.47	0.144578313253012	0.192771084337349	9.67469879518072	-7600.0	-900.0	-1700.0	-0.4	0.452727272727273	0.0724489795918367	103.577572309844	22.6073333834324	
1512496027120.42	0.132530120481928	0.192771084337349	9.67469879518072	-7900.0	-2100.0	-1700.0	-0.4	0.452727272727273	0.0724489795918367	103.577572309844	22.6073333834324	
1512496027122.38	0.144578313253012	0.180722891566265	9.67469879518072	-8300.0	-2200.0	-1500.0	-0.4	0.452727272727273	0.0744897959183674	103.577572309844	22.6073333834324	
1512496027124.33	0.132530120481928	0.168674698795181	9.68674698795181	-7200.0	-2800.0	-1500.0	-0.401818181818182	0.45	0.0744897959183674	103.574616497263	22.6073333834324	
1512496027126.28	0.120481927710843	0.180722891566265	9.68674698795181	-7500.0	-3200.0	-1400.0	-0.401818181818182	0.45	0.0744897959183674	103.574616497263	22.6073333834324	
1512496027128.23	0.120481927710843	0.204819277108434	9.68674698795181	-8600.0	-2600.0	-1300.0	-0.401818181818182	0.471818181818182	0.0755102040816327	103.574616497263	22.6073333834324	
1512496027130.19	0.132530120481928	0.204819277108434	9.68674698795181	-6900.0	-2400.0	-1300.0	-0.401818181818182	0.471818181818182	0.0755102040816327	103.574616497263	22.6073333834324	
1512496027132.14	0.120481927710843	0.180722891566265	9.67469879518072	-9200.0	-1000.0	-1200.0	-0.398181818181818	0.469090909090909	0.0775510204081633	103.577572309844	22.6073333834324	
1512496027134.09	0.120481927710843	0.180722891566265	9.67469879518072	-9300.0	-2500.0	-900.0	-0.398181818181818	0.469090909090909	0.0775510204081633	103.577572309844	22.6073333834324	
1512496027136.05	0.132530120481928	0.192771084337349	9.67469879518072	-6500.0	-2500.0	-1100.0	-0.398181818181818	0.469090909090909	0.0755102040816327	103.577572309844	22.6073333834324	
1512496027138.0	0.132530120481928	0.192771084337349	9.68674698795181	-7500.0	-3200.0	-1300.0	-0.400909090909091	0.471818181818182	0.0755102040816327	103.577572309844	22.6073333834324	
1512496027139.95	0.132530120481928	0.192771084337349	9.66265060240964	-7500.0	-1400.0	-100.0	-0.400909090909091	0.471818181818182	0.0755102040816327	103.583483937314	22.6073333834324	
1512496027141.91	0.132530120481928	0.180722891566265	9.67469879518072	-7600.0	-2600.0	-1600.0	-0.401818181818182	0.45	0.0744897959183674	103.583483937314	22.6073333834324	
1512496027143.86	0.120481927710843	0.180722891566265	9.68674698795181	-7000.0	-2700.0	-2400.0	-0.401818181818182	0.45	0.0744897959183674	103.583483937314	22.6073333834324	
1512496027145.81	0.132530120481928	0.180722891566265	9.68674698795181	-7300.0	-3200.0	-1100.0	-0.400909090909091	0.450909090909091	0.073469387755102	103.583483937314	22.6073333834324	
1512496027147.77	0.132530120481928	0.180722891566265	9.67469879518072	-8700.0	-2200.0	-600.0	-0.400909090909091	0.450909090909091	0.073469387755102	103.574616497263	22.6073333834324	
1512496027149.72	0.120481927710843	0.180722891566265	9.66265060240964	-9200.0	-1000.0	-2200.0	-0.400909090909091	0.450909090909091	0.073469387755102	103.574616497263	22.6073333834324	
1512496027151.67	0.120481927710843	0.192771084337349	9.66265060240964	-7500.0	-2800.0	-2700.0	-0.400909090909091	0.45	0.073469387755102	103.574616497263	22.6073333834324	
1512496027153.63	0.120481927710843	0.204819277108434	9.68674698795181	-8100.0	-2800.0	-1500.0	-0.400909090909091	0.45	0.073469387755102	103.574616497263	22.6073333834324	
1512496027155.58	0.120481927710843	0.192771084337349	9.67469879518072	-8200.0	-3000.0	-1900.0	-0.402727272727273	0.451818181818182	0.0744897959183674	103.574616497263	22.6073333834324	
1512496027157.53	0.132530120481928	0.204819277108434	9.67469879518072	-7700.0	-2600.0	-900.0	-0.402727272727273	0.451818181818182	0.0744897959183674	103.574616497263	22.6073333834324	
1512496027159.49	0.132530120481928	0.204819277108434	9.67469879518072	-8100.0	-1900.0	-1600.0	-0.401818181818182	0.47	0.073469387755102	103.574616497263	22.6073333834324	
1512496027161.44	0.144578313253012	0.168674698795181	9.67469879518072	-7400.0	-2300.0	-700.0	-0.401818181818182	0.47	0.073469387755102	103.574616497263	22.6073333834324	
1512496027163.39	0.132530120481928	0.192771084337349	9.69879518072289	-7100.0	-2600.0	-1800.0	-0.401818181818182	0.47	0.076530612244898	103.580528123194	22.6073333834324	
1512496027165.34	0.156626506024096	0.180722891566265	9.68674698795181	-8200.0	-1300.0	-2500.0	-0.402727272727273	0.448181818181818	0.076530612244898	103.580528123194	22.6073333834324	
1512496027167.3	0.144578313253012	0.180722891566265	9.68674698795181	-8500.0	-3300.0	-2600.0	-0.402727272727273	0.448181818181818	0.076530612244898	103.580528123194	22.6073333834324	
1512496027169.25	0.132530120481928	0.192771084337349	9.67469879518072	-8100.0	-1700.0	-1000.0	-0.399090909090909	0.470909090909091	0.0785714285714286	103.580528123194	22.6073333834324	
1512496027171.2	0.132530120481928	0.192771084337349	9.67469879518072	-8500.0	-900.0	-1200.0	-0.399090909090909	0.470909090909091	0.0785714285714286	103.580528123194	22.6073333834324	
1512496027173.16	0.132530120481928	0.180722891566265	9.67469879518072	-8400.0	-2600.0	-1200.0	-0.4	0.470909090909091	0.076530612244898	103.580528123194	22.6073333834324	
1512496027175.11	0.132530120481928	0.192771084337349	9.67469879518072	-8400.0	-2600.0	-1100.0	-0.4	0.470909090909091	0.076530612244898	103.580528123194	22.6073333834324	
1512496027177.06	0.120481927710843	0.192771084337349	9.66265060240964	-7300.0	-2000.0	-1800.0	-0.4	0.470909090909091	0.073469387755102	103.580528123194	22.6073333834324	
1512496027179.02	0.132530120481928	0.192771084337349	9.67469879518072	-8100.0	-1900.0	-500.0	-0.402727272727273	0.470909090909091	0.073469387755102	103.583483937314	22.6073333834324	
1512496027180.97	0.120481927710843	0.180722891566265	9.67469879518072	-8000.0	-2500.0	-2200.0	-0.402727272727273	0.470909090909091	0.073469387755102	103.583483937314	22.6073333834324	
1512496027182.92	0.108433734939759	0.192771084337349	9.67469879518072	-8000.0	-3300.0	-2000.0	-0.402727272727273	0.471818181818182	0.0775510204081633	103.583483937314	22.6073333834324	
1512496027184.88	0.144578313253012	0.180722891566265	9.67469879518072	-7300.0	-2400.0	-1800.0	-0.402727272727273	0.471818181818182	0.0775510204081633	103.583483937314	22.6073333834324	
1512496027186.83	0.144578313253012	0.192771084337349	9.67469879518072	-8500.0	-2300.0	-1700.0	-0.400909090909091	0.450909090909091	0.0755102040816327	103.574616497263	22.6073333834324	
1512496027188.78	0.120481927710843	0.192771084337349	9.67469879518072	-9000.0	-3300.0	-900.0	-0.400909090909091	0.450909090909091	0.0755102040816327	103.574616497263	22.6073333834324	
1512496027190.73	0.120481927710843	0.192771084337349	9.67469879518072	-8700.0	-3100.0	-1600.0	-0.4	0.471818181818182	0.0724489795918367	103.574616497263	22.6073333834324	
1512496027192.69	0.120481927710843	0.192771084337349	9.67469879518072	-7800.0	-2700.0	-2800.0	-0.4	0.471818181818182	0.0724489795918367	103.574616497263	22.6073333834324	
1512496027194.64	0.132530120481928	0.180722891566265	9.68674698795181	-8300.0	-2400.0	-1800.0	-0.4	0.471818181818182	0.0724489795918367	103.580528123194	22.6073333834324	
1512496027196.59	0.132530120481928	0.192771084337349	9.67469879518072	-7700.0	-2100.0	-1600.0	-0.401818181818182	0.449090909090909	0.0775510204081633	103.580528123194	22.6073333834324	
1512496027198.55	0.120481927710843	0.192771084337349	9.67469879518072	-8000.0	-2200.0	-1500.0	-0.401818181818182	0.449090909090909	0.0775510204081633	103.580528123194	22.6073333834324	
1512496027200.5	0.132530120481928	0.192771084337349	9.67469879518072	-8300.0	-2300.0	-2700.0	-0.401818181818182	0.471818181818182	0.0755102040816327	103.580528123194	22.6073333834324	
1512496027202.45	0.120481927710843	0.168674698795181	9.66265060240964	-7800.0	-1600.0	-1300.0	-0.401818181818182	0.471818181818182	0.0755102040816327	103.580528123194	22.6073333834324	
1512496027204.41	0.132530120481928	0.180722891566265	9.67469879518072	-8300.0	-1900.0	-2400.0	-0.4	0.452727272727273	0.0785714285714286	103.580528123194	22.6073333834324	
1512496027206.36	0.120481927710843	0.168674698795181	9.67469879518072	-8100.0	-2100.0	-1800.0	-0.4	0.452727272727273	0.0785714285714286	103.580528123194	22.6073333834324	
1512496027208.31	0.132530120481928	0.180722891566265	9.67469879518072	-8000.0	-2300.0	-1200.0	-0.4	0.452727272727273	0.0785714285714286	103.580528123194	22.6073333834324	
1512496027210.27	0.144578313253012	0.180722891566265	9.68674698795181	-7300.0	-3600.0	-2000.0	-0.399090909090909	0.449090909090909	0.076530612244898	103.574616497263	22.6073333834324	
1512496027212.22	0.120481927710843	0.180722891566265	9.67469879518072	-8200.0	-2300.0	-1200.0	-0.399090909090909	0.449090909090909	0.076530612244898	103.574616497263	22.6073333834324	
1512496027214.17	0.120481927710843	0.192771084337349	9.67469879518072	-8200.0	-2400.0	-1400.0	-0.401818181818182	0.451818181818182	0.0744897959183674	103.574616497263	22.6073333834324	
1512496027216.13	0.132530120481928	0.180722891566265	9.67469879518072	-6400.0	-3400.0	-1100.0	-0.401818181818182	0.451818181818182	0.0744897959183674	103.574616497263	22.6073333834324	
1512496027218.08	0.132530120481928	0.180722891566265	9.67469879518072	-8200.0	-2300.0	-2000.0	-0.402727272727273	0.47	0.0775510204081633	103.577572309844	22.6073333834324	
1512496027220.03	0.132530120481928	0.192771084337349	9.67469879518072	-9100.0	-2000.0	-2300.0	-0.402727272727273	0.47	0.0775510204081633	103.577572309844	22.6073333834324	
1512496027221.99	0.132530120481928	0.192771084337349	9.68674698795181	-7800.0	-1300.0	-2300.0	-0.402727272727273	0.47	0.0775510204081633	103.577572309844	22.6073333834324	
1512496027223.94	0.132530120481928	0.192771084337349	9.67469879518072	-7200.0	-2500.0	-1600.0	-0.401818181818182	0.47	0.073469387755102	103.577572309844	22.6073333834324	
1512496027225.89	0.132530120481928	0.192771084337349	9.68674698795181	-9300.0	-2200.0	-1100.0	-0.401818181818182	0.47	0.073469387755102	103.574616497263	22.6073333834324	
1512496027227.84	0.120481927710843	0.204819277108434	9.68674698795181	-7600.0	-2500.0	-2700.0	-0.404545454545455	0.471818181818182	0.0775510204081633	103.574616497263	22.6073333834324	
1512496027229.8	0.120481927710843	0.192771084337349	9.66265060240964	-7000.0	-1500.0	-2300.0	-0.404545454545455	0.471818181818182	0.0775510204081633	103.574616497263	22.6073333834324	
1512496027231.75	0.132530120481928	0.192771084337349	9.68674698795181	-8500.0	-2100.0	-1700.0	-0.399090909090909	0.450909090909091	0.0755102040816327	103.574616497263	22.6073333834324	
1512496027233.7	0.132530120481928	0.192771084337349	9.68674698795181	-8000.0	-2800.0	-1500.0	-0.399090909090909	0.450909090909091	0.0755102040816327	103.574616497263	22.6073333834324	
1512496027235.66	0.132530120481928	0.192771084337349	9.66265060240964	-9000.0	-3100.0	-500.0	-0.399090909090909	0.450909090909091	0.0755102040816327	103.574616497263	22.6073333834324	
1512496027237.61	0.120481927710843	0.192771084337349	9.67469879518072	-7500.0	-2600.0	-1400.0	-0.402727272727273	0.472727272727273	0.0724489795918367	103.574616497263	22.6073333834324	
1512496027239.56	0.120481927710843	0.192771084337349	9.68674698795181	-7500.0	-3000.0	-300.0	-0.402727272727273	0.472727272727273	0.0724489795918367	103.574616497263	22.6073333834324	
1512496027241.52	0.144578313253012	0.192771084337349	9.68674698795181	-8500.0	-1400.0	-2700.0	-0.397272727272727	0.47	0.076530612244898	103.574616497263	22.6073333834324	
1512496027243.47	0.132530120481928	0.192771084337349	9.68674698795181	-8200.0	-2400.0	-2000.0	-0.397272727272727	0.47	0.076530612244898	103.574616497263	22.6073333834324	
1512496027245.42	0.144578313253012	0.180722891566265	9.68674698795181	-7900.0	-3000.0	-2000.0	-0.399090909090909	0.47	0.0775510204081633	103.574616497263	22.6073333834324	
1512496027247.38	0.132530120481928	0.168674698795181	9.68674698795181	-6700.0	-1500.0	-1400.0	-0.399090909090909	0.47	0.0775510204081633	103.574616497263	22.6073333834324	
1512496027249.33	0.132530120481928	0.192771084337349	9.68674698795181	-6300.0	-2500.0	-2500.0	-0.399090909090909	0.47	0.0775510204081633	103.577572309844	22.6073333834324	
1512496027251.28	0.132530120481928	0.192771084337349	9.67469879518072	-9100.0	-1500.0	-1000.0	-0.401818181818182	0.45	0.0744897959183674	103.577572309844	22.6073333834324	
1512496027253.23	0.144578313253012	0.168674698795181	9.67469879518072	-7600.0	-1600.0	-2300.0	-0.401818181818182	0.45	0.0744897959183674	103.577572309844	22.6073333834324	
1512496027255.19	0.120481927710843	0.180722891566265	9.67469879518072	-7700.0	-1700.0	-2100.0	-0.400909090909091	0.451818181818182	0.073469387755102	103.577572309844	22.6073333834324	
1512496027257.14	0.132530120481928	0.192771084337349	9.68674698795181	-8600.0	-2200.0	-1500.0	-0.400909090909091	0.451818181818182	0.073469387755102	103.574616497263	22.6073333834324	
1512496027259.09	0.132530120481928	0.192771084337349	9.67469879518072	-8100.0	-2200.0	-1000.0	-0.402727272727273	0.47	0.073469387755102	103.574616497263	22.6073333834324	
1512496027261.05	0.132530120481928	0.180722891566265	9.68674698795181	-8300.0	-2200.0	-2100.0	-0.402727272727273	0.47	0.073469387755102	103.574616497263	22.6073333834324	
1512496027263.0	0.132530120481928	0.180722891566265	9.68674698795181	-8300.0	-2200.0	-1700.0	-0.402727272727273	0.47	0.073469387755102	103.574616497263	22.6073333834324	
1512496027264.95	0.132530120481928	0.192771084337349	9.68674698795181	-8700.0	-1700.0	-1200.0	-0.403636363636364	0.471818181818182	0.0744897959183674	103.580528123194	22.6073333834324	
1512496027266.91	0.132530120481928	0.216867469879518	9.67469879518072	-7100.0	-1500.0	-1000.0	-0.403636363636364	0.471818181818182	0.0744897959183674	103.580528123194	22.6073333834324	
1512496027268.86	0.156626506024096	0.204819277108434	9.67469879518072	-8000.0	-2900.0	-1900.0	-0.401818181818182	0.473636363636364	0.076530612244898	103.580528123194	22.6073333834324	
1512496027270.81	0.132530120481928	0.192771084337349	9.67469879518072	-8800.0	-3300.0	-2000.0	-0.401818181818182	0.473636363636364	0.076530612244898	103.580528123194	22.6073333834324	
1512496027272.77	0.132530120481928	0.192771084337349	9.67469879518072	-7700.0	-2500.0	-2000.0	-0.401818181818182	0.45	0.076530612244898	103.571660685451	22.6073333834324	
1512496027274.72	0.120481927710843	0.192771084337349	9.66265060240964	-7800.0	-2200.0	-900.0	-0.401818181818182	0.45	0.076530612244898	103.571660685451	22.6073333834324	
1512496027276.67	0.108433734939759	0.204819277108434	9.67469879518072	-6600.0	-1800.0	-1200.0	-0.401818181818182	0.45	0.076530612244898	103.571660685451	22.6073333834324	
1512496027278.63	0.120481927710843	0.192771084337349	9.68674698795181	-7600.0	-2000.0	-1500.0	-0.399090909090909	0.472727272727273	0.0785714285714286	103.571660685451	22.6073333834324	
1512496027280.58	0.120481927710843	0.192771084337349	9.67469879518072	-8800.0	-2200.0	-2000.0	-0.399090909090909	0.472727272727273	0.0785714285714286	103.574616497263	22.6073333834324	
1512496027282.53	0.120481927710843	0.180722891566265	9.69879518072289	-8800.0	-2500.0	-1700.0	-0.396363636363636	0.45	0.0846938775510204	103.574616497263	22.6073333834324	
1512496027284.49	0.156626506024096	0.192771084337349	9.68674698795181	-8100.0	-2500.0	-1900.0	-0.396363636363636	0.45	0.0846938775510204	103.574616497263	22.6073333834324	
1512496027286.44	0.120481927710843	0.192771084337349	9.67469879518072	-7200.0	-2900.0	-1700.0	-0.396363636363636	0.469090909090909	0.0816326530612245	103.574616497263	22.6073333834324	
1512496027288.39	0.144578313253012	0.192771084337349	9.68674698795181	-8000.0	-2200.0	-2200.0	-0.396363636363636	0.469090909090909	0.0816326530612245	103.574616497263	22.6073333834324	
1512496027290.34	0.132530120481928	0.192771084337349	9.68674698795181	-7200.0	-2100.0	-1500.0	-0.396363636363636	0.469090909090909	0.0816326530612245	103.574616497263	22.6073333834324	
1512496027292.3	0.132530120481928	0.180722891566265	9.66265060240964	-8100.0	-2500.0	-1400.0	-0.4	0.471818181818182	0.076530612244898	103.574616497263	22.6073333834324	
1512496027294.25	0.120481927710843	0.180722891566265	9.67469879518072	-8200.0	-2400.0	-1700.0	-0.4	0.471818181818182	0.076530612244898	103.574616497263	22.6073333834324	
1512496027296.2	0.132530120481928	0.180722891566265	9.68674698795181	-8000.0	-1600.0	-1400.0	-0.399090909090909	0.472727272727273	0.0795918367346939	103.577572309844	22.6073333834324	
1512496027298.16	0.132530120481928	0.180722891566265	9.66265060240964	-8800.0	-1900.0	-1700.0	-0.399090909090909	0.472727272727273	0.0795918367346939	103.577572309844	22.6073333834324	
1512496027300.11	0.132530120481928	0.168674698795181	9.66265060240964	-9200.0	-2600.0	-1300.0	-0.402727272727273	0.451818181818182	0.0755102040816327	103.577572309844	22.6073333834324	
1512496027302.06	0.120481927710843	0.192771084337349	9.66265060240964	-8300.0	-2600.0	-1400.0	-0.402727272727273	0.451818181818182	0.0755102040816327	103.577572309844	22.6073333834324	
1512496027304.02	0.132530120481928	0.180722891566265	9.67469879518072	-7400.0	-2500.0	-1200.0	-0.402727272727273	0.451818181818182	0.0755102040816327	103.574616497263	22.6073333834324	
1512496027305.97	0.144578313253012	0.192771084337349	9.67469879518072	-7800.0	-2200.0	-1500.0	-0.401818181818182	0.472727272727273	0.0744897959183674	103.574616497263	22.6073333834324	
1512496027307.92	0.132530120481928	0.168674698795181	9.68674698795181	-6500.0	-2300.0	-2000.0	-0.401818181818182	0.472727272727273	0.0744897959183674	103.574616497263	22.6073333834324	
1512496027309.88	0.120481927710843	0.204819277108434	9.69879518072289	-9600.0	-2700.0	-200.0	-0.401818181818182	0.45	0.0744897959183674	103.574616497263	22.6073333834324	
1512496027311.83	0.132530120481928	0.168674698795181	9.68674698795181	-7600.0	-2100.0	-1500.0	-0.401818181818182	0.45	0.0744897959183674	103.571660685451	22.6073333834324	
1512496027313.78	0.108433734939759	0.180722891566265	9.67469879518072	-7100.0	-2100.0	-1900.0	-0.400909090909091	0.450909090909091	0.0795918367346939	103.571660685451	22.6073333834324	
1512496027315.73	0.132530120481928	0.180722891566265	9.66265060240964	-7800.0	-2400.0	-1300.0	-0.400909090909091	0.450909090909091	0.0795918367346939	103.571660685451	22.6073333834324	
1512496027317.69	0.132530120481928	0.168674698795181	9.67469879518072	-8100.0	-2300.0	-1700.0	-0.400909090909091	0.450909090909091	0.0795918367346939	103.571660685451	22.6073333834324	
1512496027319.64	0.132530120481928	0.192771084337349	9.69879518072289	-8100.0	-2600.0	-1300.0	-0.401818181818182	0.45	0.076530612244898	103.568704874408	22.6073333834324	
1512496027321.59	0.120481927710843	0.192771084337349	9.68674698795181	-7300.0	-2200.0	-2400.0	-0.401818181818182	0.45	0.076530612244898	103.568704874408	22.6073333834324	
1512496027323.55	0.132530120481928	0.204819277108434	9.68674698795181	-8200.0	-1900.0	-2700.0	-0.400909090909091	0.471818181818182	0.076530612244898	103.568704874408	22.6073333834324	
1512496027325.5	0.120481927710843	0.180722891566265	9.69879518072289	-5600.0	-2600.0	-2100.0	-0.400909090909091	0.471818181818182	0.076530612244898	103.568704874408	22.6073333834324	
1512496027327.45	0.144578313253012	0.192771084337349	9.67469879518072	-8000.0	-2000.0	-800.0	-0.403636363636364	0.471818181818182	0.0755102040816327	103.577572309844	22.6073333834324	
1512496027329.41	0.132530120481928	0.192771084337349	9.69879518072289	-6400.0	-2800.0	-2500.0	-0.403636363636364	0.471818181818182	0.0755102040816327	103.577572309844	22.6073333834324	
1512496027331.36	0.144578313253012	0.168674698795181	9.68674698795181	-8400.0	-2300.0	-1500.0	-0.403636363636364	0.471818181818182	0.0755102040816327	103.577572309844	22.6073333834324	
1512496027333.31	0.132530120481928	0.168674698795181	9.68674698795181	-7200.0	-2500.0	-1100.0	-0.402727272727273	0.470909090909091	0.0755102040816327	103.577572309844	22.6073333834324	
1512496027335.27	0.132530120481928	0.204819277108434	9.69879518072289	-8100.0	-1400.0	-1400.0	-0.402727272727273	0.470909090909091	0.0755102040816327	103.580528123194	22.6073333834324	
1512496027337.22	0.132530120481928	0.180722891566265	9.68674698795181	-7800.0	-1300.0	-2500.0	-0.401818181818182	0.469090909090909	0.076530612244898	103.580528123194	22.6073333834324	
1512496027339.17	0.132530120481928	0.192771084337349	9.67469879518072	-7300.0	-3000.0	-1000.0	-0.401818181818182	0.469090909090909	0.076530612244898	103.580528123194	22.6073333834324	
1512496027341.13	0.120481927710843	0.192771084337349	9.67469879518072	-8300.0	-2500.0	-1800.0	-0.400909090909091	0.45	0.0755102040816327	103.580528123194	22.6073333834324	
