dateTime,acc_x,acc_y,acc_z,gyr_x,gyr_y,gyr_z,bodySurface_temp,ambient_temp,hr_raw,hr,remarks
2023-03-13 12:38:44.000,-0.02441406,0.00830103,-0.96411133,0.00000000,0.97659230,0.79348125,21.3,19.0,1435,87,Medida de prueba
2023-03-13 12:38:44.039,-0.02612305,0.00195318,-0.96411133,-0.06103516,0.67140721,0.97659230,,,,,
2023-03-13 12:38:44.078,-0.02783203,0.00415052,-0.96435547,-0.06103516,0.91555528,0.85451827,,,,,
2023-03-13 12:38:44.117,-0.02124023,0.01001007,-0.96630859,0.00000000,0.91555528,0.85451827,,,,,
2023-03-13 12:38:44.156,-0.02929688,0.00292978,-0.96386719,0.00000000,0.85451827,0.91555528,,,,,
2023-03-13 12:38:44.195,-0.02441406,0.00830103,-0.96215820,-0.06103516,0.85451827,0.91555528,,,,,
2023-03-13 12:38:44.234,-0.01953125,0.00000000,-0.96289062,-0.06103516,0.85451827,0.79348125,,,,,
2023-03-13 12:38:44.273,-0.02343750,0.00952177,-0.96655273,-0.18310547,0.79348125,0.91555528,,,,,
2023-03-13 12:38:44.312,-0.02441406,0.00488296,-0.96337891,-0.06103516,0.73244423,0.85451827,,,,,
2023-03-13 12:38:44.351,-0.02221680,0.00439467,-0.96264648,-0.06103516,0.79348125,0.85451827,,,,,
2023-03-13 12:38:44.390,-0.02758789,0.00488296,-0.96044922,-0.06103516,0.85451827,0.79348125,,,,,
2023-03-13 12:38:44.429,-0.02563477,0.00830103,-0.96533203,-0.12207031,0.91555528,0.79348125,,,,,
2023-03-13 12:38:44.468,-0.02148438,0.01074252,-0.96044922,-0.12207031,0.85451827,0.97659230,,,,,
2023-03-13 12:38:44.507,-0.02636719,0.00756859,-0.96093750,0.06103702,0.91555528,0.79348125,,,,,
2023-03-13 12:38:44.546,-0.02221680,0.01147496,-0.95996094,-0.06103516,0.85451827,0.85451827,,,,,
2023-03-13 12:38:44.585,-0.02587891,0.00830103,-0.96557617,-0.12207031,0.91555528,0.85451827,,,,,
2023-03-13 12:38:44.625,-0.02465820,0.00634785,-0.96313477,-0.06103516,0.91555528,0.91555528,,,,,
2023-03-13 12:38:44.664,-0.02441406,-0.00024414,-0.96142578,0.00000000,0.79348125,0.91555528,,,,,
2023-03-13 12:38:44.703,-0.02416992,0.00708029,-0.96264648,-0.18310547,0.91555528,0.85451827,,,,,
2023-03-13 12:38:44.742,-0.02246094,0.00854518,-0.96508789,-0.12207031,0.85451827,0.91555528,,,,,
2023-03-13 12:38:44.781,-0.02148438,0.01025422,-0.96484375,-0.12207031,0.79348125,0.85451827,,,,,
2023-03-13 12:38:44.820,-0.02636719,0.00317392,-0.96118164,0.00000000,0.91555528,0.85451827,,,,,
2023-03-13 12:38:44.859,-0.02026367,-0.00048828,-0.96655273,-0.06103516,0.85451827,0.85451827,,,,,
2023-03-13 12:38:44.898,-0.02661133,0.00830103,-0.95947266,-0.12207031,0.79348125,0.79348125,,,,,
2023-03-13 12:38:44.937,-0.02587891,0.00585955,-0.95776367,-0.18310547,0.79348125,0.91555528,,,,,
2023-03-13 12:38:44.976,-0.02319336,0.00097659,-0.96215820,-0.12207031,0.85451827,0.91555528,,,,,
2023-03-13 12:38:45.015,-0.02368164,0.00561541,-0.96582031,-0.06103516,0.79348125,0.79348125,,,,,
2023-03-13 12:38:45.054,-0.02416992,0.00708029,-0.96240234,-0.06103516,0.85451827,0.79348125,,,,,
2023-03-13 12:38:45.093,-0.01953125,0.00390637,-0.96777344,-0.06103516,0.79348125,0.79348125,,,,,
2023-03-13 12:38:45.132,-0.02514648,0.00610370,-0.96240234,-0.06103516,0.85451827,1.03762932,,,,,
2023-03-13 12:38:45.171,-0.02197266,0.00390637,-0.96411133,-0.12207031,0.73244423,0.73244423,,,,,
2023-03-13 12:38:45.210,-0.02880859,0.00634785,-0.96484375,0.00000000,0.91555528,0.85451827,,,,,
2023-03-13 12:38:45.250,-0.02636719,0.00512711,-0.96166992,0.00000000,0.79348125,0.91555528,,,,,
2023-03-13 12:38:45.289,-0.02343750,0.00756859,-0.96606445,-0.12207031,0.73244423,0.91555528,,,,,
2023-03-13 12:38:45.328,-0.02563477,0.00927763,-0.96386719,-0.06103516,0.79348125,0.85451827,,,,,
2023-03-13 12:38:45.367,-0.02636719,0.00659200,-0.96337891,-0.06103516,0.91555528,0.91555528,,,,,
2023-03-13 12:38:45.406,-0.02465820,0.00219733,-0.96752930,0.00000000,0.91555528,0.79348125,,,,,
2023-03-13 12:38:45.445,-0.02807617,0.00219733,-0.96264648,0.00000000,0.91555528,0.85451827,,,,,
2023-03-13 12:38:45.484,-0.02368164,0.00512711,-0.96655273,-0.12207031,0.85451827,0.91555528,,,,,
2023-03-13 12:38:45.523,-0.02172852,0.00708029,-0.96093750,0.00000000,0.85451827,0.79348125,,,,,
2023-03-13 12:38:45.562,-0.02612305,0.00927763,-0.95874023,0.00000000,0.73244423,0.97659230,,,,,
2023-03-13 12:38:45.601,-0.02026367,0.00708029,-0.96435547,-0.18310547,0.67140721,0.97659230,,,,,
2023-03-13 12:38:45.640,-0.02539062,0.00195318,-0.96582031,-0.12207031,0.91555528,0.85451827,,,8191,87,
2023-03-13 12:38:45.679,-0.02416992,0.00268563,-0.96533203,-0.12207031,0.73244423,0.85451827,,,,,
2023-03-13 12:38:45.718,-0.02612305,0.00732444,-0.96069336,-0.24414062,0.79348125,0.97659230,,,,,
2023-03-13 12:38:45.757,-0.02368164,0.01147496,-0.96166992,0.06103702,0.91555528,0.79348125,,,,,
2023-03-13 12:38:45.796,-0.02441406,0.00610370,-0.96606445,-0.06103516,0.91555528,0.85451827,,,,,
2023-03-13 12:38:45.835,-0.02319336,0.00366222,-0.96093750,-0.06103516,0.91555528,0.85451827,,,,,
2023-03-13 12:38:45.875,-0.02148438,0.00463881,-0.96215820,-0.06103516,0.67140721,0.85451827,,,,,
2023-03-13 12:38:45.914,-0.02587891,0.00244148,-0.96606445,-0.06103516,0.91555528,0.73244423,,,,,
2023-03-13 12:38:45.953,-0.02197266,0.00341807,-0.95898438,0.06103702,0.85451827,0.73244423,,,,,
2023-03-13 12:38:45.992,-0.02465820,0.00292978,-0.96240234,-0.18310547,0.79348125,0.85451827,,,,,
2023-03-13 12:38:46.031,-0.02197266,0.00317392,-0.95654297,-0.06103516,0.67140721,0.79348125,,,,,
2023-03-13 12:38:46.070,-0.02221680,0.00512711,-0.95996094,-0.12207031,0.91555528,0.91555528,,,,,
2023-03-13 12:38:46.109,-0.02050781,0.00488296,-0.95971680,0.00000000,0.85451827,0.97659230,,,,,
2023-03-13 12:38:46.148,-0.02124023,0.00585955,-0.96093750,-0.06103516,0.91555528,0.73244423,,,,,
2023-03-13 12:38:46.187,-0.02246094,0.01269570,-0.96118164,0.00000000,0.97659230,0.79348125,,,,,
2023-03-13 12:38:46.226,-0.02026367,0.00659200,-0.96093750,-0.12207031,0.54933317,0.73244423,,,,,
2023-03-13 12:38:46.265,-0.02612305,0.00122074,-0.96044922,-0.06103516,0.85451827,0.85451827,,,,,
2023-03-13 12:38:46.304,-0.02246094,0.00292978,-0.96166992,-0.06103516,0.79348125,0.79348125,,,,,
2023-03-13 12:38:46.343,-0.02807617,0.00415052,-0.96264648,0.06103702,0.85451827,0.85451827,,,,,
2023-03-13 12:38:46.382,-0.02343750,0.00488296,-0.96166992,-0.12207031,0.73244423,0.91555528,,,,,
2023-03-13 12:38:46.421,-0.02661133,0.00634785,-0.96240234,-0.12207031,0.91555528,0.91555528,,,,,
2023-03-13 12:38:46.460,-0.01953125,0.00537126,-0.96435547,-0.06103516,0.79348125,0.79348125,,,,,
2023-03-13 12:38:46.500,-0.02465820,0.00439467,-0.95996094,-0.18310547,0.61037019,0.79348125,,,,,
2023-03-13 12:38:46.539,-0.02343750,0.00708029,-0.95898438,-0.06103516,0.91555528,0.91555528,,,,,
2023-03-13 12:38:46.578,-0.02612305,0.00097659,-0.95996094,-0.06103516,0.73244423,0.85451827,,,,,
2023-03-13 12:38:46.617,-0.02465820,0.00805689,-0.96337891,-0.12207031,1.03762932,0.91555528,,,,,
2023-03-13 12:38:46.656,-0.02294922,0.00219733,-0.95922852,0.00000000,0.85451827,0.91555528,,,,,
2023-03-13 12:38:46.695,-0.01953125,0.00805689,-0.96337891,0.00000000,0.73244423,0.85451827,,,,,
2023-03-13 12:38:46.734,-0.02197266,0.00805689,-0.96533203,-0.12207031,0.85451827,0.73244423,,,,,
2023-03-13 12:38:46.773,-0.03002930,0.00732444,-0.96313477,0.00000000,0.85451827,0.91555528,,,,,
2023-03-13 12:38:46.812,-0.02075195,0.00341807,-0.96533203,0.00000000,1.03762932,0.85451827,,,,,
2023-03-13 12:38:46.851,-0.02563477,0.00317392,-0.96118164,-0.12207031,0.61037019,0.97659230,,,,,
2023-03-13 12:38:46.890,-0.01538086,0.00683615,-0.96142578,0.06103702,0.79348125,0.73244423,,,,,
2023-03-13 12:38:46.929,-0.02563477,0.00683615,-0.96240234,-0.18310547,0.79348125,0.91555528,,,,,
2023-03-13 12:38:46.968,-0.02368164,0.00708029,-0.96997070,0.00000000,1.03762932,0.79348125,,,,,
2023-03-13 12:38:47.007,-0.02416992,0.00292978,-0.96215820,-0.24414062,0.67140721,0.91555528,,,,,
2023-03-13 12:38:47.046,-0.02172852,0.00708029,-0.96093750,-0.06103516,0.79348125,0.85451827,,,,,
2023-03-13 12:38:47.085,-0.02758789,0.01196326,-0.96337891,-0.06103516,0.85451827,0.79348125,,,,,
2023-03-13 12:38:47.125,-0.02514648,0.01001007,-0.96459961,-0.12207031,0.97659230,0.73244423,,,,,
2023-03-13 12:38:47.164,-0.02514648,0.00585955,-0.95703125,-0.06103516,0.85451827,0.85451827,,,,,
2023-03-13 12:38:47.203,-0.02099609,0.00952177,-0.96118164,0.00000000,0.67140721,0.79348125,,,,,
2023-03-13 12:38:47.242,-0.02685547,0.00268563,-0.96313477,-0.06103516,0.97659230,0.85451827,,,,,
2023-03-13 12:38:47.281,-0.02465820,0.00610370,-0.96533203,0.00000000,0.79348125,0.73244423,,,,,
2023-03-13 12:38:47.320,-0.02221680,0.00708029,-0.95971680,-0.06103516,0.67140721,0.73244423,,,8191,87,
2023-03-13 12:38:47.359,-0.02294922,0.00952177,-0.96606445,-0.06103516,0.85451827,0.85451827,,,,,
2023-03-13 12:38:47.398,-0.02221680,0.00244148,-0.96093750,0.00000000,0.91555528,0.79348125,,,,,
2023-03-13 12:38:47.437,-0.02709961,0.00463881,-0.96313477,-0.12207031,0.61037019,0.79348125,,,,,
2023-03-13 12:38:47.476,-0.02514648,0.00561541,-0.96484375,-0.12207031,0.67140721,0.79348125,,,,,
2023-03-13 12:38:47.515,-0.02416992,0.00610370,-0.96264648,-0.06103516,0.85451827,0.85451827,,,,,
2023-03-13 12:38:47.554,-0.02026367,0.00830103,-0.96777344,-0.06103516,0.85451827,0.73244423,,,,,
2023-03-13 12:38:47.593,-0.02075195,0.00830103,-0.96411133,-0.06103516,0.91555528,0.91555528,,,,,
2023-03-13 12:38:47.632,-0.02026367,0.00512711,-0.96948242,-0.12207031,0.67140721,0.91555528,,,,,
2023-03-13 12:38:47.671,-0.02758789,0.01025422,-0.96386719,-0.06103516,0.91555528,0.73244423,,,,,
2023-03-13 12:38:47.710,-0.02172852,0.00537126,-0.96264648,0.06103702,0.91555528,0.79348125,,,,,
2023-03-13 12:38:47.750,-0.02221680,0.00488296,-0.96118164,-0.06103516,0.91555528,0.85451827,,,,,
2023-03-13 12:38:47.789,-0.02246094,0.00512711,-0.96386719,-0.12207031,0.79348125,0.85451827,,,,,
2023-03-13 12:38:47.828,-0.02441406,0.00390637,-0.96411133,-0.12207031,0.97659230,0.85451827,,,,,
2023-03-13 12:38:47.867,-0.02368164,0.00244148,-0.96191406,-0.06103516,0.85451827,0.85451827,,,,,
2023-03-13 12:38:47.906,-0.02172852,0.00170904,-0.96166992,-0.06103516,0.73244423,0.85451827,,,,,
2023-03-13 12:38:47.945,-0.02246094,0.00366222,-0.96118164,-0.06103516,0.73244423,0.85451827,,,,,
2023-03-13 12:38:47.984,-0.02758789,0.01416059,-0.96362305,-0.12207031,0.85451827,0.85451827,,,,,
2023-03-13 12:38:48.023,-0.02441406,0.00659200,-0.96264648,-0.06103516,0.85451827,0.85451827,,,,,
2023-03-13 12:38:48.062,-0.02343750,0.00341807,-0.96240234,0.00000000,0.73244423,0.85451827,,,,,
2023-03-13 12:38:48.101,-0.02050781,0.00415052,-0.95678711,0.00000000,0.91555528,0.97659230,,,,,
2023-03-13 12:38:48.140,-0.02343750,0.00805689,-0.96679688,-0.12207031,0.73244423,0.85451827,,,,,
2023-03-13 12:38:48.179,-0.01806641,0.00585955,-0.96484375,-0.06103516,0.73244423,0.85451827,,,,,
2023-03-13 12:38:48.218,-0.02416992,0.00122074,-0.96313477,0.06103702,0.97659230,0.85451827,,,,,
2023-03-13 12:38:48.257,-0.02368164,0.00390637,-0.96044922,-0.06103516,0.79348125,0.91555528,,,,,
2023-03-13 12:38:48.296,-0.02734375,0.00708029,-0.96118164,-0.12207031,0.67140721,0.85451827,,,,,
2023-03-13 12:38:48.335,-0.01977539,0.00732444,-0.95996094,-0.12207031,0.67140721,0.79348125,,,,,
2023-03-13 12:38:48.375,-0.02343750,0.00585955,-0.96508789,-0.06103516,1.03762932,0.73244423,,,,,
2023-03-13 12:38:48.414,-0.02563477,0.00610370,-0.96630859,-0.12207031,0.91555528,0.85451827,,,,,
2023-03-13 12:38:48.453,-0.02392578,0.00830103,-0.95434570,-0.18310547,0.67140721,0.85451827,,,,,
2023-03-13 12:38:48.492,-0.02294922,0.00390637,-0.96142578,-0.06103516,0.79348125,0.91555528,,,,,
2023-03-13 12:38:48.531,-0.02368164,0.00439467,-0.96264648,0.06103702,0.91555528,0.85451827,,,,,
2023-03-13 12:38:48.570,-0.02734375,0.00756859,-0.95800781,0.00000000,0.91555528,0.85451827,,,,,
2023-03-13 12:38:48.609,-0.02270508,0.00805689,-0.95874023,-0.24414062,0.67140721,0.85451827,,,,,
2023-03-13 12:38:48.648,-0.02416992,0.00585955,-0.96630859,-0.06103516,0.97659230,0.79348125,,,,,
2023-03-13 12:38:48.687,-0.01855469,0.00439467,-0.95922852,-0.06103516,0.97659230,0.91555528,,,,,
2023-03-13 12:38:48.726,-0.02075195,0.00463881,-0.95971680,-0.06103516,0.73244423,0.91555528,,,,,
2023-03-13 12:38:48.765,-0.02172852,0.00561541,-0.96240234,-0.24414062,0.73244423,0.97659230,,,,,
2023-03-13 12:38:48.804,-0.02416992,0.00830103,-0.96704102,0.06103702,0.97659230,0.79348125,,,,,
2023-03-13 12:38:48.843,-0.02343750,0.00463881,-0.96533203,-0.12207031,0.85451827,0.73244423,,,,,
2023-03-13 12:38:48.882,-0.02246094,0.00366222,-0.96118164,-0.12207031,0.73244423,0.73244423,,,,,
2023-03-13 12:38:48.921,-0.02416992,0.00708029,-0.96240234,-0.06103516,0.97659230,0.97659230,,,,,
2023-03-13 12:38:48.960,-0.02490234,0.00512711,-0.96337891,-0.06103516,1.03762932,0.85451827,,,,,
2023-03-13 12:38:49.000,-0.02539062,0.00830103,-0.96337891,0.00000000,0.85451827,0.85451827,,,8191,87,
2023-03-13 12:38:49.039,-0.02636719,0.00439467,-0.96044922,-0.18310547,0.79348125,0.85451827,,,,,
2023-03-13 12:38:49.078,-0.02490234,0.00561541,-0.96093750,-0.12207031,1.03762932,0.85451827,,,,,
2023-03-13 12:38:49.117,-0.02929688,0.00488296,-0.96093750,0.00000000,0.79348125,0.97659230,,,,,
2023-03-13 12:38:49.156,-0.02343750,0.00415052,-0.96264648,-0.06103516,0.85451827,0.85451827,,,,,
2023-03-13 12:38:49.195,-0.02368164,0.00585955,-0.95800781,-0.06103516,0.85451827,0.85451827,,,,,
2023-03-13 12:38:49.234,-0.02636719,0.00634785,-0.96630859,-0.12207031,0.67140721,0.91555528,,,,,
2023-03-13 12:38:49.273,-0.02050781,0.00195318,-0.96142578,-0.12207031,0.73244423,0.85451827,,,,,
2023-03-13 12:38:49.312,-0.02465820,0.00512711,-0.96679688,0.06103702,0.85451827,0.73244423,,,,,
2023-03-13 12:38:49.351,-0.02221680,0.00537126,-0.96801758,-0.12207031,0.85451827,0.85451827,,,,,
2023-03-13 12:38:49.390,-0.02294922,0.00195318,-0.96362305,-0.12207031,0.67140721,0.79348125,,,,,
2023-03-13 12:38:49.429,-0.02075195,0.01147496,-0.96240234,-0.06103516,0.97659230,0.79348125,,,,,
2023-03-13 12:38:49.468,-0.02270508,0.00927763,-0.96850586,-0.12207031,0.73244423,0.85451827,,,,,
2023-03-13 12:38:49.507,-0.02343750,0.00292978,-0.96557617,-0.12207031,0.79348125,0.79348125,,,,,
2023-03-13 12:38:49.546,-0.02661133,0.00561541,-0.96044922,0.06103702,0.91555528,0.91555528,,,,,
2023-03-13 12:38:49.585,-0.02465820,0.00268563,-0.96240234,0.00000000,0.85451827,0.97659230,,,,,
2023-03-13 12:38:49.625,-0.02416992,0.00512711,-0.96337891,-0.06103516,0.79348125,0.73244423,,,,,
2023-03-13 12:38:49.664,-0.02465820,0.00927763,-0.96069336,-0.06103516,0.79348125,0.85451827,,,,,
2023-03-13 12:38:49.703,-0.02490234,0.00463881,-0.96191406,0.06103702,0.67140721,0.79348125,,,,,
2023-03-13 12:38:49.742,-0.02270508,0.00463881,-0.96533203,-0.06103516,1.03762932,0.97659230,,,,,
2023-03-13 12:38:49.781,-0.02392578,0.01147496,-0.95971680,0.00000000,0.85451827,0.85451827,,,,,
2023-03-13 12:38:49.820,-0.02661133,0.00390637,-0.95751953,-0.12207031,0.85451827,0.85451827,,,,,
2023-03-13 12:38:49.859,-0.02075195,0.00341807,-0.96215820,-0.12207031,0.79348125,0.91555528,,,,,
2023-03-13 12:38:49.898,-0.02587891,0.00537126,-0.96093750,-0.06103516,0.79348125,0.85451827,,,,,
2023-03-13 12:38:49.937,-0.02221680,0.00610370,-0.95971680,0.00000000,0.91555528,0.85451827,,,,,
2023-03-13 12:38:49.976,-0.01977539,0.00708029,-0.96752930,-0.06103516,0.67140721,0.91555528,,,,,
2023-03-13 12:38:50.015,-0.02099609,0.00756859,-0.96215820,0.00000000,0.97659230,0.85451827,,,,,
2023-03-13 12:38:50.054,-0.02124023,0.00341807,-0.96044922,-0.06103516,0.85451827,0.85451827,,,,,
2023-03-13 12:38:50.093,-0.01953125,0.00585955,-0.96069336,-0.12207031,0.91555528,0.85451827,,,,,
2023-03-13 12:38:50.132,-0.02221680,0.00854518,-0.96508789,0.06103702,0.67140721,0.73244423,,,,,
2023-03-13 12:38:50.171,-0.02221680,0.00634785,-0.96215820,-0.12207031,0.97659230,0.91555528,,,,,
2023-03-13 12:38:50.210,-0.02612305,0.00903348,-0.96240234,0.00000000,0.85451827,0.79348125,,,,,
2023-03-13 12:38:50.250,-0.02319336,0.00732444,-0.95605469,0.00000000,0.36622211,0.85451827,,,,,
2023-03-13 12:38:50.289,-0.02001953,0.00708029,-0.96337891,0.00000000,0.97659230,0.91555528,,,,,
2023-03-13 12:38:50.328,-0.02368164,0.00805689,-0.96166992,0.06103702,0.91555528,0.79348125,,,,,
2023-03-13 12:38:50.367,-0.02416992,0.00781274,-0.96386719,0.00000000,0.73244423,0.79348125,,,,,
2023-03-13 12:38:50.406,-0.01904297,0.00415052,-0.95947266,-0.12207031,0.73244423,0.85451827,,,,,
2023-03-13 12:38:50.445,-0.02124023,0.00610370,-0.95947266,-0.12207031,0.85451827,0.91555528,,,,,
2023-03-13 12:38:50.484,-0.02587891,0.00708029,-0.96240234,-0.06103516,0.85451827,0.79348125,,,,,
2023-03-13 12:38:50.523,-0.02392578,0.00512711,-0.96801758,0.00000000,1.15970336,0.79348125,,,,,
2023-03-13 12:38:50.562,-0.02343750,0.00732444,-0.95971680,-0.24414062,0.61037019,0.97659230,,,,,
2023-03-13 12:38:50.601,-0.02416992,0.01123081,-0.95922852,-0.06103516,0.85451827,0.79348125,,,,,
2023-03-13 12:38:50.640,-0.02246094,0.00854518,-0.96386719,-0.12207031,1.03762932,0.79348125,,,8191,87,
2023-03-13 12:38:50.679,-0.01953125,0.00732444,-0.96166992,-0.12207031,0.73244423,0.85451827,,,,,
2023-03-13 12:38:50.718,-0.02392578,0.00634785,-0.95849609,-0.12207031,0.79348125,0.91555528,,,,,
2023-03-13 12:38:50.757,-0.01904297,0.00805689,-0.96386719,0.06103702,0.73244423,0.73244423,,,,,
2023-03-13 12:38:50.796,-0.01513672,0.00854518,-0.96166992,0.00000000,0.91555528,0.85451827,,,,,
2023-03-13 12:38:50.835,-0.01879883,0.00659200,-0.96752930,0.00000000,0.73244423,0.79348125,,,,,
2023-03-13 12:38:50.875,-0.02099609,0.00878933,-0.96142578,-0.06103516,1.03762932,0.91555528,,,,,
2023-03-13 12:38:50.914,-0.02294922,0.00781274,-0.95898438,-0.18310547,0.61037019,0.79348125,,,,,
2023-03-13 12:38:50.953,-0.02490234,0.01220740,-0.96142578,-0.12207031,0.79348125,0.97659230,,,,,
2023-03-13 12:38:50.992,-0.01977539,0.00903348,-0.95874023,0.06103702,0.91555528,0.85451827,,,,,
2023-03-13 12:38:51.031,-0.02050781,0.00292978,-0.96240234,-0.06103516,0.42725913,0.91555528,,,,,
2023-03-13 12:38:51.070,-0.02368164,0.00390637,-0.97045898,-0.12207031,0.85451827,0.79348125,,,,,
2023-03-13 12:38:51.109,-0.02807617,-0.00146484,-0.96704102,-0.06103516,1.46488845,0.85451827,,,,,
2023-03-13 12:38:51.148,-0.02368164,0.00878933,-0.96752930,-0.42724609,-0.79345703,0.85451827,,,,,
2023-03-13 12:38:51.187,-0.02246094,0.00830103,-0.95971680,0.00000000,1.46488845,0.91555528,,,,,
2023-03-13 12:38:51.226,-0.02221680,0.00708029,-0.96118164,0.06103702,1.58696249,0.79348125,,,,,
2023-03-13 12:38:51.265,-0.02587891,0.00195318,-0.96752930,-0.06103516,0.85451827,0.85451827,,,,,
2023-03-13 12:38:51.304,-0.02270508,0.00683615,-0.95874023,-0.24414062,0.06103702,0.91555528,,,,,
2023-03-13 12:38:51.343,-0.02075195,0.00317392,-0.96191406,0.06103702,1.15970336,0.79348125,,,,,
2023-03-13 12:38:51.382,-0.02099609,0.00830103,-0.95849609,-0.06103516,1.52592547,0.85451827,,,,,
2023-03-13 12:38:51.421,-0.02661133,0.00708029,-0.96484375,-0.18310547,0.12207404,0.85451827,,,,,
2023-03-13 12:38:51.460,-0.02514648,0.01245155,-0.95874023,-0.06103516,1.40385144,0.91555528,,,,,
2023-03-13 12:38:51.500,-0.02319336,0.00537126,-0.95971680,-0.12207031,0.67140721,0.91555528,,,,,
2023-03-13 12:38:51.539,-0.02539062,0.01098666,-0.96386719,0.06103702,1.40385144,0.97659230,,,,,
2023-03-13 12:38:51.578,-0.02392578,0.00927763,-0.97192383,-0.12207031,0.06103702,0.85451827,,,,,
2023-03-13 12:38:51.617,-0.02685547,0.00854518,-0.96655273,-0.18310547,0.91555528,0.91555528,,,,,
2023-03-13 12:38:51.656,-0.02124023,0.00805689,-0.96093750,0.06103702,1.22074038,0.79348125,,,,,
2023-03-13 12:38:51.695,-0.01904297,0.00585955,-0.96118164,-0.06103516,0.54933317,0.79348125,,,,,
2023-03-13 12:38:51.734,-0.02172852,0.00561541,-0.96801758,-0.12207031,0.48829615,0.91555528,,,,,
2023-03-13 12:38:51.773,-0.02416992,0.00634785,-0.96044922,-0.06103516,0.73244423,0.91555528,,,,,
2023-03-13 12:38:51.812,-0.02416992,0.00610370,-0.96118164,0.12207404,1.77007355,0.91555528,,,,,
2023-03-13 12:38:51.851,-0.02416992,0.00341807,-0.96704102,-0.12207031,-0.12207031,0.85451827,,,,,
2023-03-13 12:38:51.890,-0.02246094,-0.00073242,-0.96166992,-0.12207031,0.73244423,0.79348125,,,,,
2023-03-13 12:38:51.929,-0.02612305,0.00390637,-0.96704102,0.00000000,1.22074038,0.67140721,,,,,
2023-03-13 12:38:51.968,-0.02172852,0.00537126,-0.96264648,0.06103702,1.83111057,0.79348125,,,,,
2023-03-13 12:38:52.007,-0.02294922,0.00585955,-0.96240234,-0.18310547,0.18311106,0.85451827,,,,,
2023-03-13 12:38:52.046,-0.02270508,0.00439467,-0.96191406,-0.12207031,0.67140721,0.79348125,,,,,
2023-03-13 12:38:52.085,-0.02465820,0.00292978,-0.96606445,-0.12207031,1.46488845,0.97659230,,,,,
2023-03-13 12:38:52.125,-0.02856445,0.01538133,-0.95263672,0.00000000,0.79348125,0.73244423,,,,,
2023-03-13 12:38:52.164,-0.02294922,0.00415052,-0.96704102,-0.12207031,0.61037019,0.85451827,,,,,
2023-03-13 12:38:52.203,-0.02270508,0.00830103,-0.95703125,-0.12207031,0.85451827,0.85451827,,,,,
2023-03-13 12:38:52.242,-0.02294922,0.00488296,-0.96240234,-0.06103516,1.03762932,0.85451827,,,,,
2023-03-13 12:38:52.281,-0.01782227,0.00683615,-0.96533203,0.00000000,0.73244423,0.85451827,,,,,
2023-03-13 12:38:52.320,-0.02148438,0.00903348,-0.96191406,-0.18310547,0.97659230,0.91555528,,,8191,87,
2023-03-13 12:38:52.359,-0.02416992,0.00463881,-0.96386719,-0.12207031,0.73244423,0.79348125,,,,,
2023-03-13 12:38:52.398,-0.02075195,0.00122074,-0.97119141,-0.12207031,0.85451827,0.85451827,,,,,
2023-03-13 12:38:52.437,-0.02026367,0.00219733,-0.95751953,-0.12207031,0.79348125,0.97659230,,,,,
2023-03-13 12:38:52.476,-0.02294922,0.01001007,-0.96093750,0.00000000,0.73244423,0.91555528,,,,,
2023-03-13 12:38:52.515,-0.02148438,0.00805689,-0.95654297,-0.06103516,0.79348125,0.85451827,,,,,
2023-03-13 12:38:52.554,-0.02319336,0.00439467,-0.96508789,0.00000000,0.91555528,0.91555528,,,,,
2023-03-13 12:38:52.593,-0.02587891,0.00756859,-0.96240234,0.06103702,0.97659230,0.73244423,,,,,
2023-03-13 12:38:52.632,-0.02050781,0.00659200,-0.96435547,-0.18310547,-0.42724609,0.97659230,,,,,
2023-03-13 12:38:52.671,-0.01708984,0.01391644,-0.95996094,0.00000000,1.52592547,0.91555528,,,,,
2023-03-13 12:38:52.710,-0.02124023,0.00830103,-0.96142578,0.00000000,1.22074038,0.85451827,,,,,
2023-03-13 12:38:52.750,-0.02416992,0.00756859,-0.96264648,-0.18310547,0.48829615,0.85451827,,,,,
2023-03-13 12:38:52.789,-0.02343750,0.00561541,-0.95947266,-0.12207031,0.61037019,0.79348125,,,,,
2023-03-13 12:38:52.828,-0.02197266,0.00756859,-0.95947266,-0.06103516,0.85451827,0.91555528,,,,,
2023-03-13 12:38:52.867,-0.02514648,0.00683615,-0.96533203,-0.12207031,1.52592547,0.79348125,,,,,
2023-03-13 12:38:52.906,-0.02319336,0.00097659,-0.96044922,-0.18310547,0.18311106,0.85451827,,,,,
2023-03-13 12:38:52.945,-0.02368164,0.01001007,-0.95581055,-0.06103516,0.85451827,0.85451827,,,,,
2023-03-13 12:38:52.984,-0.02246094,0.00439467,-0.95629883,-0.06103516,0.91555528,0.91555528,,,,,
2023-03-13 12:38:53.023,-0.02758789,0.00537126,-0.96337891,0.00000000,0.91555528,0.85451827,,,,,
2023-03-13 12:38:53.062,-0.02416992,0.00195318,-0.95996094,0.00000000,0.73244423,0.79348125,,,,,
2023-03-13 12:38:53.101,-0.02490234,0.00341807,-0.95922852,0.00000000,0.73244423,0.79348125,,,,,
2023-03-13 12:38:53.140,-0.02294922,0.00976592,-0.96044922,-0.06103516,1.09866634,0.73244423,,,,,
2023-03-13 12:38:53.179,-0.02124023,0.00122074,-0.96289062,-0.12207031,0.48829615,0.85451827,,,,,
2023-03-13 12:38:53.218,-0.02246094,0.00463881,-0.96093750,-0.18310547,0.85451827,0.85451827,,,,,
2023-03-13 12:38:53.257,-0.02343750,0.00244148,-0.95727539,-0.06103516,1.03762932,0.85451827,,,,,
2023-03-13 12:38:53.296,-0.02197266,0.00561541,-0.96337891,-0.12207031,0.85451827,0.85451827,,,,,
2023-03-13 12:38:53.335,-0.02539062,0.00659200,-0.96240234,-0.06103516,0.61037019,0.79348125,,,,,
2023-03-13 12:38:53.375,-0.02441406,0.01098666,-0.96362305,0.00000000,1.09866634,0.79348125,,,,,
2023-03-13 12:38:53.414,-0.02465820,-0.00146484,-0.95849609,-0.06103516,0.85451827,0.79348125,,,,,
2023-03-13 12:38:53.453,-0.02124023,0.00708029,-0.96997070,-0.06103516,0.73244423,0.79348125,,,,,
2023-03-13 12:38:53.492,-0.02343750,0.00634785,-0.95996094,0.06103702,0.67140721,0.91555528,,,,,
2023-03-13 12:38:53.531,-0.02465820,0.00634785,-0.96533203,0.06103702,1.28177740,0.79348125,,,,,
2023-03-13 12:38:53.570,-0.02392578,0.00463881,-0.96142578,-0.06103516,0.79348125,0.91555528,,,,,
2023-03-13 12:38:53.609,-0.02124023,0.00878933,-0.96337891,-0.12207031,0.61037019,0.91555528,,,,,
2023-03-13 12:38:53.648,-0.02636719,0.00122074,-0.96118164,-0.06103516,0.85451827,0.85451827,,,,,
2023-03-13 12:38:53.687,-0.02929688,0.00927763,-0.95678711,0.06103702,0.85451827,0.91555528,,,,,
2023-03-13 12:38:53.726,-0.02685547,0.00415052,-0.96240234,-0.12207031,0.91555528,0.79348125,,,,,
2023-03-13 12:38:53.765,-0.02636719,0.00292978,-0.96191406,0.06103702,0.85451827,0.85451827,,,,,
2023-03-13 12:38:53.804,-0.02490234,0.00122074,-0.96386719,-0.06103516,0.91555528,0.85451827,,,,,
2023-03-13 12:38:53.843,-0.02294922,0.00659200,-0.96166992,-0.06103516,0.67140721,0.91555528,,,,,
2023-03-13 12:38:53.882,-0.02026367,0.00415052,-0.96459961,-0.06103516,0.85451827,0.85451827,,,,,
2023-03-13 12:38:53.921,-0.02270508,0.00708029,-0.95825195,-0.18310547,0.79348125,0.85451827,,,,,
2023-03-13 12:38:53.960,-0.03149414,0.00512711,-0.96093750,-0.12207031,0.85451827,0.73244423,,,,,
2023-03-13 12:38:54.000,-0.02416992,0.00634785,-0.96337891,-0.12207031,0.91555528,0.85451827,,,8191,87,
2023-03-13 12:38:54.039,-0.02368164,0.00341807,-0.95922852,-0.18310547,0.73244423,0.85451827,,,,,
2023-03-13 12:38:54.078,-0.02465820,0.00854518,-0.95507812,-0.12207031,0.91555528,0.85451827,,,,,
2023-03-13 12:38:54.117,-0.02539062,0.01025422,-0.96606445,0.00000000,0.85451827,0.91555528,,,,,
2023-03-13 12:38:54.156,-0.02441406,0.00830103,-0.95971680,-0.12207031,0.97659230,0.73244423,,,,,
2023-03-13 12:38:54.195,-0.02148438,0.00463881,-0.96191406,-0.06103516,0.67140721,0.97659230,,,,,
2023-03-13 12:38:54.234,-0.02368164,0.00830103,-0.96215820,-0.06103516,0.79348125,0.85451827,,,,,
2023-03-13 12:38:54.273,-0.02368164,0.00805689,-0.95874023,-0.18310547,0.85451827,0.97659230,,,,,
2023-03-13 12:38:54.312,-0.02539062,0.00659200,-0.96508789,0.00000000,0.73244423,0.91555528,,,,,
2023-03-13 12:38:54.351,-0.02490234,0.00219733,-0.95751953,0.00000000,0.67140721,0.91555528,,,,,
2023-03-13 12:38:54.390,-0.01879883,0.01001007,-0.96752930,-0.06103516,0.97659230,0.91555528,,,,,
2023-03-13 12:38:54.429,-0.02026367,0.00585955,-0.96411133,-0.12207031,0.85451827,0.85451827,,,,,
2023-03-13 12:38:54.468,-0.02148438,0.00415052,-0.96313477,0.00000000,0.85451827,0.79348125,,,,,
2023-03-13 12:38:54.507,-0.02490234,0.00219733,-0.96752930,0.06103702,0.73244423,0.79348125,,,,,
2023-03-13 12:38:54.546,-0.02319336,0.00610370,-0.97680664,0.06103702,0.97659230,0.79348125,,,,,
2023-03-13 12:38:54.585,-0.02026367,0.00732444,-0.96191406,0.00000000,0.67140721,0.79348125,,,,,
2023-03-13 12:38:54.625,-0.02221680,0.00097659,-0.96313477,-0.12207031,0.85451827,0.85451827,,,,,
2023-03-13 12:38:54.664,-0.02246094,0.00830103,-0.96411133,-0.06103516,0.97659230,0.85451827,,,,,
2023-03-13 12:38:54.703,-0.02392578,0.00952177,-0.96093750,-0.06103516,0.97659230,0.85451827,,,,,
2023-03-13 12:38:54.742,-0.02026367,0.00366222,-0.96752930,-0.12207031,0.73244423,0.85451827,,,,,
2023-03-13 12:38:54.781,-0.02026367,0.00585955,-0.96557617,-0.06103516,0.91555528,0.91555528,,,,,
2023-03-13 12:38:54.820,-0.02490234,0.00756859,-0.95996094,-0.06103516,1.03762932,0.91555528,,,,,
2023-03-13 12:38:54.859,-0.02343750,0.00659200,-0.96264648,-0.18310547,0.61037019,0.97659230,,,,,
2023-03-13 12:38:54.898,-0.02636719,0.00561541,-0.96240234,-0.06103516,0.85451827,0.91555528,,,,,
2023-03-13 12:38:54.937,-0.02563477,0.00463881,-0.96459961,0.00000000,0.97659230,0.79348125,,,,,
2023-03-13 12:38:54.976,-0.02539062,0.00268563,-0.96166992,0.00000000,0.85451827,0.97659230,,,,,
2023-03-13 12:38:55.015,-0.02465820,0.00415052,-0.96313477,-0.18310547,0.67140721,0.79348125,,,,,
2023-03-13 12:38:55.054,-0.02319336,0.00170904,-0.95996094,-0.06103516,0.97659230,0.85451827,,,,,
2023-03-13 12:38:55.093,-0.02026367,0.00756859,-0.96240234,-0.18310547,0.97659230,0.97659230,,,,,
2023-03-13 12:38:55.132,-0.02221680,0.00781274,-0.96215820,-0.12207031,0.67140721,0.79348125,,,,,
2023-03-13 12:38:55.171,-0.02148438,0.00390637,-0.96411133,0.00000000,0.85451827,0.79348125,,,,,
2023-03-13 12:38:55.210,-0.02099609,0.00708029,-0.96240234,0.06103702,1.03762932,0.85451827,,,,,
2023-03-13 12:38:55.250,-0.02294922,0.00561541,-0.96435547,-0.18310547,0.85451827,0.91555528,,,,,
2023-03-13 12:38:55.289,-0.02294922,-0.00073242,-0.97753906,0.00000000,0.67140721,0.85451827,,,,,
2023-03-13 12:38:55.328,-0.02197266,0.00854518,-0.96069336,-0.06103516,0.85451827,0.85451827,,,,,
2023-03-13 12:38:55.367,-0.02636719,0.00585955,-0.96752930,0.00000000,0.91555528,0.85451827,,,,,
2023-03-13 12:38:55.406,-0.02148438,0.00170904,-0.97119141,-0.06103516,0.79348125,0.85451827,,,,,
2023-03-13 12:38:55.445,-0.02294922,0.00488296,-0.96484375,-0.24414062,0.73244423,0.79348125,,,,,
2023-03-13 12:38:55.484,-0.02563477,0.00390637,-0.96386719,0.00000000,0.97659230,0.97659230,,,,,
2023-03-13 12:38:55.523,-0.02465820,0.00561541,-0.95703125,0.00000000,0.79348125,0.97659230,,,,,
2023-03-13 12:38:55.562,-0.02758789,0.00439467,-0.96557617,-0.12207031,0.73244423,0.85451827,,,,,
2023-03-13 12:38:55.601,-0.02368164,0.01123081,-0.95922852,-0.06103516,0.97659230,0.85451827,,,,,
2023-03-13 12:38:55.640,-0.02563477,0.00341807,-0.96533203,-0.06103516,0.79348125,0.91555528,,,8191,87,
2023-03-13 12:38:55.679,-0.02294922,0.00952177,-0.95922852,-0.06103516,0.79348125,0.85451827,,,,,
2023-03-13 12:38:55.718,-0.02441406,0.00512711,-0.95947266,0.00000000,0.85451827,0.85451827,,,,,
2023-03-13 12:38:55.757,-0.02539062,0.00708029,-0.96044922,-0.18310547,0.91555528,0.79348125,,,,,
2023-03-13 12:38:55.796,-0.02758789,0.00585955,-0.96411133,-0.12207031,0.79348125,0.97659230,,,,,
2023-03-13 12:38:55.835,-0.02441406,0.00708029,-0.95800781,0.00000000,0.73244423,0.85451827,,,,,
2023-03-13 12:38:55.875,-0.02294922,0.00512711,-0.95849609,-0.06103516,0.85451827,0.79348125,,,,,
2023-03-13 12:38:55.914,-0.02465820,0.00537126,-0.96484375,-0.06103516,0.79348125,0.85451827,,,,,
2023-03-13 12:38:55.953,-0.02294922,0.00878933,-0.96850586,-0.12207031,0.85451827,0.85451827,,,,,
2023-03-13 12:38:55.992,-0.02294922,0.00732444,-0.95849609,-0.18310547,0.73244423,0.97659230,,,,,
2023-03-13 12:38:56.031,-0.02172852,0.00585955,-0.96069336,-0.18310547,1.09866634,0.79348125,,,,,
2023-03-13 12:38:56.070,-0.02832031,0.00122074,-0.97167969,0.06103702,0.73244423,0.85451827,,,,,
2023-03-13 12:38:56.109,-0.02465820,0.00976592,-0.96752930,0.00000000,0.91555528,0.85451827,,,,,
2023-03-13 12:38:56.148,-0.01904297,0.00708029,-0.95825195,0.00000000,0.97659230,0.79348125,,,,,
2023-03-13 12:38:56.187,-0.02465820,0.00830103,-0.96313477,-0.06103516,0.73244423,0.85451827,,,,,
2023-03-13 12:38:56.226,-0.01757812,0.00244148,-0.96655273,-0.06103516,0.73244423,0.79348125,,,,,
2023-03-13 12:38:56.265,-0.02319336,0.00634785,-0.95971680,0.00000000,1.03762932,1.03762932,,,,,
2023-03-13 12:38:56.304,-0.02416992,0.00463881,-0.95776367,0.00000000,0.97659230,0.85451827,,,,,
2023-03-13 12:38:56.343,-0.02148438,0.00463881,-0.96655273,-0.12207031,0.67140721,0.79348125,,,,,
2023-03-13 12:38:56.382,-0.02050781,0.00756859,-0.95874023,-0.06103516,0.79348125,0.73244423,,,,,
2023-03-13 12:38:56.421,-0.01782227,0.00732444,-0.95849609,0.00000000,0.85451827,0.85451827,,,,,
2023-03-13 12:38:56.460,-0.02514648,0.00366222,-0.96411133,-0.12207031,0.85451827,0.97659230,,,,,
2023-03-13 12:38:56.500,-0.02587891,0.00585955,-0.96264648,-0.18310547,0.85451827,0.97659230,,,,,
2023-03-13 12:38:56.539,-0.02368164,0.00292978,-0.96630859,-0.12207031,0.79348125,0.91555528,,,,,
2023-03-13 12:38:56.578,-0.02368164,0.00585955,-0.96044922,-0.06103516,0.85451827,0.85451827,,,,,
2023-03-13 12:38:56.617,-0.02124023,0.00415052,-0.95971680,0.00000000,0.91555528,0.97659230,,,,,
2023-03-13 12:38:56.656,-0.02050781,0.00610370,-0.96337891,0.00000000,0.79348125,0.85451827,,,,,
2023-03-13 12:38:56.695,-0.02563477,0.00512711,-0.96215820,-0.06103516,0.91555528,0.85451827,,,,,
2023-03-13 12:38:56.734,-0.02270508,0.00463881,-0.96313477,-0.18310547,0.48829615,0.85451827,,,,,
2023-03-13 12:38:56.773,-0.02416992,0.00781274,-0.95800781,-0.06103516,1.22074038,0.79348125,,,,,
2023-03-13 12:38:56.812,-0.02490234,0.00292978,-0.96533203,0.00000000,1.15970336,0.79348125,,,,,
2023-03-13 12:38:56.851,-0.02026367,0.00585955,-0.96459961,-0.12207031,0.97659230,0.85451827,,,,,
2023-03-13 12:38:56.890,-0.02246094,0.00756859,-0.96459961,-0.12207031,0.48829615,0.85451827,,,,,
2023-03-13 12:38:56.929,-0.02416992,0.00268563,-0.95874023,-0.06103516,0.91555528,0.91555528,,,,,
2023-03-13 12:38:56.968,-0.02416992,0.00537126,-0.96118164,-0.12207031,1.15970336,0.91555528,,,,,
2023-03-13 12:38:57.007,-0.02294922,0.00561541,-0.96557617,-0.12207031,0.85451827,0.91555528,,,,,
2023-03-13 12:38:57.046,-0.02368164,0.00463881,-0.96337891,-0.12207031,0.73244423,0.79348125,,,,,
2023-03-13 12:38:57.085,-0.02587891,0.00170904,-0.96240234,-0.18310547,0.97659230,0.85451827,,,,,
2023-03-13 12:38:57.125,-0.02197266,0.00585955,-0.96264648,0.00000000,0.91555528,0.91555528,,,,,
2023-03-13 12:38:57.164,-0.01879883,0.00708029,-0.96557617,-0.12207031,0.67140721,0.73244423,,,,,
2023-03-13 12:38:57.203,-0.02319336,0.01074252,-0.96240234,0.00000000,0.97659230,0.79348125,,,,,
2023-03-13 12:38:57.242,-0.02026367,0.00488296,-0.96948242,-0.06103516,0.91555528,0.91555528,,,,,
2023-03-13 12:38:57.281,-0.02392578,0.00512711,-0.96069336,-0.18310547,0.67140721,0.85451827,,,,,
2023-03-13 12:38:57.320,-0.02343750,0.00317392,-0.95898438,-0.12207031,0.91555528,0.79348125,,,8191,87,
2023-03-13 12:38:57.359,-0.02148438,0.00585955,-0.96337891,-0.18310547,0.85451827,0.85451827,,,,,
2023-03-13 12:38:57.398,-0.01928711,0.00805689,-0.96240234,-0.12207031,0.79348125,0.79348125,,,,,
2023-03-13 12:38:57.437,-0.02490234,0.00732444,-0.95703125,-0.12207031,0.79348125,0.91555528,,,,,
2023-03-13 12:38:57.476,-0.02294922,0.00976592,-0.96191406,-0.24414062,0.61037019,0.91555528,,,,,
2023-03-13 12:38:57.515,-0.02221680,0.00732444,-0.96508789,-0.06103516,1.22074038,0.85451827,,,,,
2023-03-13 12:38:57.554,-0.02221680,0.00683615,-0.95922852,0.06103702,0.79348125,0.91555528,,,,,
2023-03-13 12:38:57.593,-0.02270508,0.00317392,-0.95629883,0.00000000,0.67140721,0.85451827,,,,,
2023-03-13 12:38:57.632,-0.02441406,0.00292978,-0.95996094,0.00000000,0.61037019,0.79348125,,,,,
2023-03-13 12:38:57.671,-0.02636719,0.00512711,-0.95971680,0.00000000,1.22074038,0.73244423,,,,,
2023-03-13 12:38:57.710,-0.02026367,0.00439467,-0.96044922,-0.18310547,0.06103702,0.79348125,,,,,
2023-03-13 12:38:57.750,-0.02490234,0.01123081,-0.96069336,0.06103702,1.03762932,0.91555528,,,,,
2023-03-13 12:38:57.789,-0.02001953,0.00683615,-0.96313477,-0.06103516,0.79348125,0.91555528,,,,,
2023-03-13 12:38:57.828,-0.02954102,0.00488296,-0.96801758,-0.06103516,0.91555528,0.73244423,,,,,
2023-03-13 12:38:57.867,-0.01977539,0.00292978,-0.96240234,-0.06103516,0.85451827,0.79348125,,,,,
2023-03-13 12:38:57.906,-0.02368164,0.00585955,-0.96093750,-0.06103516,0.67140721,0.79348125,,,,,
2023-03-13 12:38:57.945,-0.02319336,0.00341807,-0.96240234,0.06103702,1.40385144,0.79348125,,,,,
2023-03-13 12:38:57.984,-0.02465820,0.00683615,-0.96362305,-0.12207031,0.54933317,0.85451827,,,,,
2023-03-13 12:38:58.023,-0.01904297,0.00732444,-0.96337891,0.00000000,1.03762932,0.73244423,,,,,
2023-03-13 12:38:58.062,-0.02563477,0.00585955,-0.95800781,-0.18310547,0.67140721,0.79348125,,,,,
2023-03-13 12:38:58.101,-0.02294922,0.00732444,-0.96215820,-0.18310547,1.03762932,0.85451827,,,,,
2023-03-13 12:38:58.140,-0.02124023,0.00219733,-0.95971680,-0.06103516,0.79348125,0.91555528,,,,,
2023-03-13 12:38:58.179,-0.02709961,0.00488296,-0.96484375,-0.12207031,0.73244423,0.79348125,,,,,
2023-03-13 12:38:58.218,-0.02319336,0.00292978,-0.96191406,-0.06103516,1.03762932,0.73244423,,,,,
2023-03-13 12:38:58.257,-0.02294922,0.00830103,-0.95996094,-0.12207031,0.79348125,0.79348125,,,,,
2023-03-13 12:38:58.296,-0.01904297,0.00830103,-0.96215820,-0.06103516,0.97659230,0.97659230,,,,,
2023-03-13 12:38:58.335,-0.02246094,0.00146489,-0.96118164,-0.06103516,0.73244423,0.85451827,,,,,
2023-03-13 12:38:58.375,-0.02026367,0.00561541,-0.96362305,-0.06103516,1.09866634,0.91555528,,,,,
2023-03-13 12:38:58.414,-0.02441406,0.00512711,-0.96606445,0.06103702,0.61037019,0.85451827,,,,,
2023-03-13 12:38:58.453,-0.02294922,0.00317392,-0.95776367,-0.12207031,0.79348125,0.85451827,,,,,
2023-03-13 12:38:58.492,-0.01904297,0.00512711,-0.96386719,-0.24414062,0.73244423,0.79348125,,,,,
2023-03-13 12:38:58.531,-0.02026367,0.00878933,-0.96240234,-0.06103516,0.97659230,0.85451827,,,,,
2023-03-13 12:38:58.570,-0.02587891,0.00610370,-0.96411133,0.00000000,0.67140721,0.85451827,,,,,
2023-03-13 12:38:58.609,-0.02587891,0.00585955,-0.95703125,-0.12207031,0.85451827,0.85451827,,,,,
2023-03-13 12:38:58.648,-0.02124023,0.00732444,-0.95703125,-0.06103516,0.91555528,0.73244423,,,,,
2023-03-13 12:38:58.687,-0.02221680,0.00488296,-0.95581055,-0.06103516,0.54933317,0.79348125,,,,,
2023-03-13 12:38:58.726,-0.01904297,0.00952177,-0.96411133,0.00000000,0.79348125,0.85451827,,,,,
2023-03-13 12:38:58.765,-0.01953125,0.00073244,-0.96166992,-0.12207031,0.79348125,0.85451827,,,,,
2023-03-13 12:38:58.804,-0.02221680,0.00781274,-0.96875000,-0.06103516,0.97659230,0.91555528,,,,,
2023-03-13 12:38:58.843,-0.02539062,0.00390637,-0.96386719,0.00000000,0.67140721,0.91555528,,,,,
2023-03-13 12:38:58.882,-0.02563477,0.00830103,-0.95971680,-0.06103516,0.85451827,0.85451827,,,,,
2023-03-13 12:38:58.921,-0.01928711,0.00585955,-0.96606445,-0.12207031,0.85451827,0.79348125,,,,,
2023-03-13 12:38:58.960,-0.02929688,0.00317392,-0.96337891,-0.06103516,0.85451827,0.85451827,,,,,
2023-03-13 12:38:59.000,-0.02294922,0.00830103,-0.95800781,-0.18310547,0.85451827,0.91555528,,,4096,87,
2023-03-13 12:38:59.039,-0.02490234,0.00463881,-0.96459961,0.00000000,0.67140721,0.85451827,,,,,
2023-03-13 12:38:59.078,-0.02221680,0.00463881,-0.96142578,0.00000000,0.91555528,0.79348125,,,,,
2023-03-13 12:38:59.117,-0.02514648,0.00439467,-0.96484375,-0.06103516,0.73244423,0.85451827,,,,,
2023-03-13 12:38:59.156,-0.02905273,0.00634785,-0.95947266,-0.06103516,0.85451827,0.85451827,,,,,
2023-03-13 12:38:59.195,-0.02148438,0.00805689,-0.96044922,-0.06103516,0.97659230,0.79348125,,,,,
2023-03-13 12:38:59.234,-0.01977539,0.00585955,-0.95507812,-0.06103516,0.30518509,0.85451827,,,,,
2023-03-13 12:38:59.273,-0.02539062,0.00878933,-0.96240234,0.06103702,1.22074038,0.85451827,,,,,
2023-03-13 12:38:59.312,-0.02490234,0.00341807,-0.95971680,-0.12207031,0.42725913,0.85451827,,,,,
2023-03-13 12:38:59.351,-0.02392578,0.00952177,-0.96606445,-0.06103516,1.34281442,0.85451827,,,,,
2023-03-13 12:38:59.390,-0.02050781,0.00488296,-0.96215820,-0.12207031,0.67140721,0.91555528,,,,,
2023-03-13 12:38:59.429,-0.02221680,0.01196326,-0.95971680,-0.12207031,0.67140721,0.85451827,,,,,
2023-03-13 12:38:59.468,-0.02490234,0.00585955,-0.95922852,0.00000000,0.97659230,0.91555528,,,,,
2023-03-13 12:38:59.507,-0.02221680,0.00439467,-0.95971680,0.06103702,0.61037019,0.79348125,,,,,
2023-03-13 12:38:59.546,-0.02319336,0.00585955,-0.96386719,-0.06103516,1.28177740,0.85451827,,,,,
2023-03-13 12:38:59.585,-0.02197266,0.00537126,-0.96484375,-0.06103516,0.30518509,0.85451827,,,,,
2023-03-13 12:38:59.625,-0.02490234,0.00170904,-0.96044922,0.00000000,1.09866634,0.73244423,,,,,
2023-03-13 12:38:59.664,-0.02392578,0.01049837,-0.96142578,-0.12207031,0.61037019,0.85451827,,,,,
2023-03-13 12:38:59.703,-0.02368164,0.00952177,-0.96411133,-0.18310547,1.03762932,0.79348125,,,,,
2023-03-13 12:38:59.742,-0.02172852,0.00537126,-0.95532227,-0.12207031,0.67140721,0.91555528,,,,,
2023-03-13 12:38:59.781,-0.02294922,0.00854518,-0.96264648,0.00000000,0.85451827,0.85451827,,,,,
2023-03-13 12:38:59.820,-0.01928711,0.00756859,-0.96240234,-0.06103516,0.97659230,0.79348125,,,,,
2023-03-13 12:38:59.859,-0.02612305,0.00585955,-0.96093750,0.00000000,0.79348125,0.79348125,,,,,
2023-03-13 12:38:59.898,-0.02514648,0.01147496,-0.95996094,-0.12207031,1.09866634,0.91555528,,,,,
2023-03-13 12:38:59.937,-0.02490234,0.00756859,-0.95996094,-0.06103516,0.73244423,0.97659230,,,,,
2023-03-13 12:38:59.976,-0.02075195,0.00952177,-0.96142578,0.00000000,0.97659230,0.91555528,,,,,
2023-03-13 12:39:00.015,-0.02026367,0.00488296,-0.95922852,-0.06103516,0.61037019,0.85451827,,,,,
2023-03-13 12:39:00.054,-0.02075195,0.00659200,-0.95874023,0.00000000,1.15970336,0.85451827,,,,,
2023-03-13 12:39:00.093,-0.02026367,0.00805689,-0.96191406,-0.12207031,0.61037019,0.85451827,,,,,
2023-03-13 12:39:00.132,-0.02416992,0.00561541,-0.95507812,-0.06103516,0.85451827,0.85451827,,,,,
2023-03-13 12:39:00.171,-0.02050781,0.00537126,-0.96459961,-0.06103516,0.79348125,0.73244423,,,,,
2023-03-13 12:39:00.210,-0.02807617,0.00537126,-0.96264648,-0.06103516,0.91555528,0.97659230,,,,,
2023-03-13 12:39:00.250,-0.02050781,0.00415052,-0.96411133,-0.12207031,0.91555528,0.85451827,,,,,
2023-03-13 12:39:00.289,-0.01782227,0.00463881,-0.96118164,-0.06103516,0.67140721,0.85451827,,,,,
2023-03-13 12:39:00.328,-0.02392578,0.01074252,-0.96533203,0.00000000,0.79348125,0.85451827,,,,,
2023-03-13 12:39:00.367,-0.02172852,0.00732444,-0.95410156,-0.12207031,0.91555528,0.91555528,,,,,
2023-03-13 12:39:00.406,-0.02294922,0.00610370,-0.96533203,-0.12207031,0.91555528,0.85451827,,,,,
2023-03-13 12:39:00.445,-0.02221680,0.00537126,-0.96166992,-0.24414062,0.61037019,0.79348125,,,,,
2023-03-13 12:39:00.484,-0.02172852,0.00781274,-0.95678711,0.00000000,1.09866634,0.79348125,,,,,
2023-03-13 12:39:00.523,-0.02539062,0.00341807,-0.96508789,0.12207404,0.97659230,0.91555528,,,,,
2023-03-13 12:39:00.562,-0.02563477,0.00781274,-0.96093750,0.00000000,0.79348125,0.91555528,,,,,
2023-03-13 12:39:00.601,-0.02294922,0.00659200,-0.95629883,0.00000000,0.73244423,0.79348125,,,,,
2023-03-13 12:39:00.640,-0.02441406,0.00903348,-0.95849609,-0.06103516,0.85451827,0.79348125,,,8191,87,
2023-03-13 12:39:00.679,-0.02343750,0.00610370,-0.96459961,-0.06103516,0.85451827,0.85451827,,,,,
2023-03-13 12:39:00.718,-0.02099609,0.01074252,-0.95776367,-0.18310547,0.67140721,0.85451827,,,,,
2023-03-13 12:39:00.757,-0.02636719,0.00341807,-0.96362305,-0.06103516,0.79348125,0.85451827,,,,,
2023-03-13 12:39:00.796,-0.02294922,0.00390637,-0.96215820,-0.06103516,0.61037019,0.91555528,,,,,
2023-03-13 12:39:00.835,-0.02026367,0.00463881,-0.96411133,-0.12207031,0.91555528,0.73244423,,,,,
2023-03-13 12:39:00.875,-0.02099609,0.00585955,-0.96240234,-0.12207031,0.85451827,0.85451827,,,,,
2023-03-13 12:39:00.914,-0.01953125,0.00268563,-0.96411133,-0.12207031,0.85451827,0.79348125,,,,,
2023-03-13 12:39:00.953,-0.02734375,-0.00073242,-0.96240234,-0.12207031,0.67140721,0.91555528,,,,,
2023-03-13 12:39:00.992,-0.02539062,0.00463881,-0.96386719,-0.12207031,0.79348125,0.91555528,,,,,
2023-03-13 12:39:01.031,-0.02539062,0.00170904,-0.95117188,-0.06103516,0.97659230,0.91555528,,,,,
2023-03-13 12:39:01.070,-0.02246094,0.00903348,-0.96215820,0.06103702,0.67140721,0.79348125,,,,,
2023-03-13 12:39:01.109,-0.02246094,0.00415052,-0.95947266,-0.12207031,0.67140721,1.03762932,,,,,
2023-03-13 12:39:01.148,-0.02172852,0.00073244,-0.96606445,-0.06103516,0.91555528,0.91555528,,,,,
2023-03-13 12:39:01.187,-0.02392578,0.00390637,-0.95996094,0.12207404,0.73244423,0.85451827,,,,,
2023-03-13 12:39:01.226,-0.02294922,0.00341807,-0.95971680,-0.06103516,0.91555528,0.79348125,,,,,
2023-03-13 12:39:01.265,-0.02587891,0.00488296,-0.95678711,-0.06103516,0.54933317,0.79348125,,,,,
2023-03-13 12:39:01.304,-0.02392578,0.00341807,-0.96655273,-0.12207031,1.52592547,0.85451827,,,,,
2023-03-13 12:39:01.343,-0.01660156,0.00903348,-0.95629883,-0.12207031,0.61037019,0.91555528,,,,,
2023-03-13 12:39:01.382,-0.02514648,0.00366222,-0.96435547,0.00000000,1.28177740,0.97659230,,,,,
2023-03-13 12:39:01.421,-0.01977539,0.00610370,-0.96801758,-0.18310547,0.30518509,0.91555528,,,,,
2023-03-13 12:39:01.460,-0.02832031,0.00659200,-0.96337891,0.00000000,0.79348125,0.85451827,,,,,
2023-03-13 12:39:01.500,-0.01855469,0.00805689,-0.96044922,-0.06103516,1.09866634,0.91555528,,,,,
2023-03-13 12:39:01.539,-0.02612305,0.00781274,-0.95971680,-0.06103516,0.54933317,0.79348125,,,,,
2023-03-13 12:39:01.578,-0.02416992,0.00244148,-0.95922852,-0.06103516,1.09866634,0.73244423,,,,,
2023-03-13 12:39:01.617,-0.02392578,0.00268563,-0.96411133,0.00000000,0.36622211,0.85451827,,,,,
2023-03-13 12:39:01.656,-0.02587891,0.00024415,-0.96166992,-0.18310547,1.03762932,0.85451827,,,,,
2023-03-13 12:39:01.695,-0.02197266,0.00781274,-0.96826172,-0.18310547,0.67140721,0.97659230,,,,,
2023-03-13 12:39:01.734,-0.01855469,0.00732444,-0.96118164,-0.12207031,0.91555528,0.79348125,,,,,
2023-03-13 12:39:01.773,-0.02661133,0.00219733,-0.96508789,-0.06103516,0.61037019,0.85451827,,,,,
2023-03-13 12:39:01.812,-0.02172852,0.00830103,-0.96093750,0.00000000,0.91555528,0.85451827,,,,,
2023-03-13 12:39:01.851,-0.01953125,0.00268563,-0.96044922,0.00000000,0.97659230,0.79348125,,,,,
2023-03-13 12:39:01.890,-0.02197266,0.00659200,-0.96899414,0.00000000,0.73244423,0.79348125,,,,,
2023-03-13 12:39:01.929,-0.02319336,0.00952177,-0.95800781,0.00000000,0.91555528,0.91555528,,,,,
2023-03-13 12:39:01.968,-0.02636719,0.00610370,-0.96533203,0.00000000,0.79348125,0.85451827,,,,,
2023-03-13 12:39:02.007,-0.02124023,0.00512711,-0.96411133,-0.06103516,0.91555528,0.79348125,,,,,
2023-03-13 12:39:02.046,-0.02343750,0.00537126,-0.96606445,-0.06103516,0.36622211,0.73244423,,,,,
2023-03-13 12:39:02.085,-0.02465820,0.00732444,-0.96533203,-0.06103516,1.22074038,0.85451827,,,,,
2023-03-13 12:39:02.125,-0.02343750,0.00805689,-0.96240234,-0.12207031,0.54933317,0.79348125,,,,,
2023-03-13 12:39:02.164,-0.02465820,0.00610370,-0.96777344,-0.06103516,0.67140721,0.91555528,,,,,
2023-03-13 12:39:02.203,-0.01928711,0.00463881,-0.95800781,-0.06103516,0.54933317,0.79348125,,,,,
2023-03-13 12:39:02.242,-0.02636719,0.00341807,-0.96630859,0.12207404,1.40385144,0.97659230,,,,,
2023-03-13 12:39:02.281,-0.02343750,0.00756859,-0.96533203,0.00000000,0.79348125,0.91555528,,,,,
2023-03-13 12:39:02.320,-0.02124023,0.00219733,-0.96655273,-0.12207031,0.42725913,0.79348125,,,2706,87,
2023-03-13 12:39:02.359,-0.02099609,0.00830103,-0.95776367,0.00000000,1.15970336,0.85451827,,,,,
2023-03-13 12:39:02.398,-0.02563477,0.00195318,-0.96240234,0.00000000,0.91555528,0.85451827,,,,,
2023-03-13 12:39:02.437,-0.01953125,0.00292978,-0.96386719,0.00000000,0.67140721,0.79348125,,,,,
2023-03-13 12:39:02.476,-0.02124023,0.00512711,-0.96093750,0.00000000,0.67140721,0.73244423,,,,,
2023-03-13 12:39:02.515,-0.02490234,0.00463881,-0.96411133,0.00000000,1.28177740,0.85451827,,,,,
2023-03-13 12:39:02.554,-0.02416992,0.00537126,-0.96777344,-0.12207031,0.61037019,0.91555528,,,,,
2023-03-13 12:39:02.593,-0.02465820,0.00805689,-0.95849609,-0.06103516,0.54933317,0.79348125,,,,,
2023-03-13 12:39:02.632,-0.02221680,0.00781274,-0.96606445,0.06103702,1.09866634,0.91555528,,,,,
2023-03-13 12:39:02.671,-0.01708984,0.00634785,-0.95776367,0.06103702,0.85451827,0.91555528,,,,,
2023-03-13 12:39:02.710,-0.02343750,0.00756859,-0.96997070,-0.24414062,0.00000000,0.91555528,,,,,
2023-03-13 12:39:02.750,-0.02563477,0.00341807,-0.96118164,0.06103702,1.22074038,0.79348125,,,,,
2023-03-13 12:39:02.789,-0.02954102,0.00415052,-0.96386719,0.06103702,1.09866634,0.79348125,,,,,
2023-03-13 12:39:02.828,-0.02221680,0.00634785,-0.96337891,-0.18310547,0.12207404,0.85451827,,,,,
2023-03-13 12:39:02.867,-0.02465820,0.00512711,-0.96264648,-0.12207031,0.91555528,0.73244423,,,,,
2023-03-13 12:39:02.906,-0.02734375,0.00390637,-0.96362305,-0.06103516,1.34281442,0.85451827,,,,,
2023-03-13 12:39:02.945,-0.02416992,0.00732444,-0.95922852,-0.12207031,0.36622211,0.85451827,,,,,
2023-03-13 12:39:02.984,-0.02172852,0.01049837,-0.96606445,-0.12207031,0.54933317,0.91555528,,,,,
2023-03-13 12:39:03.023,-0.01806641,0.00512711,-0.95751953,0.00000000,1.40385144,0.85451827,,,,,
2023-03-13 12:39:03.062,-0.02636719,0.00708029,-0.96508789,-0.06103516,0.73244423,0.97659230,,,,,
2023-03-13 12:39:03.101,-0.02294922,0.00585955,-0.96166992,-0.06103516,0.42725913,0.91555528,,,,,
2023-03-13 12:39:03.140,-0.02587891,0.01098666,-0.96093750,0.00000000,1.15970336,0.85451827,,,,,
2023-03-13 12:39:03.179,-0.02490234,0.00659200,-0.96484375,-0.06103516,0.97659230,0.85451827,,,,,
2023-03-13 12:39:03.218,-0.02441406,0.00439467,-0.96118164,-0.06103516,0.30518509,0.85451827,,,,,
2023-03-13 12:39:03.257,-0.02392578,0.00903348,-0.95751953,-0.12207031,1.03762932,0.85451827,,,,,
2023-03-13 12:39:03.296,-0.02587891,0.01074252,-0.96264648,-0.06103516,1.15970336,0.79348125,,,,,
2023-03-13 12:39:03.335,-0.02270508,0.00585955,-0.95971680,-0.12207031,0.61037019,0.73244423,,,,,
2023-03-13 12:39:03.375,-0.02319336,0.00537126,-0.95898438,-0.24414062,0.61037019,0.91555528,,,,,
2023-03-13 12:39:03.414,-0.02221680,0.00732444,-0.96777344,0.06103702,1.22074038,0.85451827,,,,,
2023-03-13 12:39:03.453,-0.02490234,0.00341807,-0.96191406,0.00000000,0.61037019,0.85451827,,,,,
2023-03-13 12:39:03.492,-0.01782227,0.00415052,-0.96240234,-0.24414062,0.67140721,0.85451827,,,,,
2023-03-13 12:39:03.531,-0.01757812,-0.00097656,-0.95556641,-0.06103516,0.91555528,0.79348125,,,,,
2023-03-13 12:39:03.570,-0.02709961,0.00537126,-0.96606445,-0.06103516,0.91555528,0.97659230,,,,,
2023-03-13 12:39:03.609,-0.02783203,0.00268563,-0.95996094,-0.06103516,0.73244423,0.79348125,,,,,
2023-03-13 12:39:03.648,-0.02197266,0.00756859,-0.96044922,0.00000000,0.79348125,0.91555528,,,,,
2023-03-13 12:39:03.687,-0.02294922,0.00585955,-0.96777344,-0.06103516,1.15970336,0.91555528,,,,,
2023-03-13 12:39:03.726,-0.02197266,0.00317392,-0.96411133,-0.06103516,0.73244423,0.73244423,,,,,
2023-03-13 12:39:03.765,-0.01855469,0.00585955,-0.95996094,-0.12207031,0.73244423,0.91555528,,,,,
2023-03-13 12:39:03.804,-0.02124023,0.00683615,-0.96044922,-0.12207031,0.85451827,0.79348125,,,,,
2023-03-13 12:39:03.843,-0.02587891,0.00390637,-0.96044922,0.06103702,0.97659230,0.97659230,,,,,
2023-03-13 12:39:03.882,-0.02124023,0.00341807,-0.96044922,-0.12207031,0.67140721,1.03762932,,,,,
2023-03-13 12:39:03.921,-0.01879883,0.01074252,-0.96728516,-0.06103516,0.79348125,0.85451827,,,,,
2023-03-13 12:39:03.960,-0.02465820,0.00048830,-0.96264648,-0.18310547,0.85451827,0.79348125,,,,,
2023-03-13 12:39:04.000,-0.02246094,0.00341807,-0.96044922,-0.18310547,0.73244423,0.79348125,,,2706,87,
2023-03-13 12:39:04.039,-0.01879883,0.00463881,-0.95971680,0.00000000,0.85451827,0.85451827,,,,,
2023-03-13 12:39:04.078,-0.02368164,0.00585955,-0.96240234,-0.12207031,0.97659230,0.79348125,,,,,
2023-03-13 12:39:04.117,-0.02368164,0.00561541,-0.96166992,-0.24414062,0.61037019,0.91555528,,,,,
2023-03-13 12:39:04.156,-0.02612305,0.00488296,-0.96630859,-0.18310547,0.73244423,0.91555528,,,,,
2023-03-13 12:39:04.195,-0.01928711,0.00732444,-0.96533203,0.00000000,1.03762932,0.85451827,,,,,
2023-03-13 12:39:04.234,-0.02392578,0.00610370,-0.96337891,-0.06103516,0.85451827,0.85451827,,,,,
2023-03-13 12:39:04.273,-0.02001953,0.00708029,-0.96240234,-0.12207031,0.73244423,0.79348125,,,,,
2023-03-13 12:39:04.312,-0.02563477,0.00878933,-0.96362305,-0.18310547,0.91555528,0.85451827,,,,,
2023-03-13 12:39:04.351,-0.02294922,0.01001007,-0.96191406,-0.06103516,0.91555528,0.79348125,,,,,
2023-03-13 12:39:04.390,-0.02270508,0.00390637,-0.95776367,-0.12207031,0.85451827,0.91555528,,,,,
2023-03-13 12:39:04.429,-0.02514648,0.00585955,-0.95629883,-0.12207031,0.91555528,0.91555528,,,,,
2023-03-13 12:39:04.468,-0.02221680,0.00927763,-0.96191406,0.00000000,0.97659230,0.85451827,,,,,
2023-03-13 12:39:04.507,-0.02392578,0.00537126,-0.95947266,-0.12207031,0.67140721,0.91555528,,,,,
2023-03-13 12:39:04.546,-0.02441406,0.00659200,-0.96313477,0.06103702,0.61037019,0.85451827,,,,,
2023-03-13 12:39:04.585,-0.02050781,0.00317392,-0.96362305,0.00000000,1.03762932,0.91555528,,,,,
2023-03-13 12:39:04.625,-0.02343750,0.00683615,-0.95971680,0.00000000,0.85451827,0.73244423,,,,,
2023-03-13 12:39:04.664,-0.02294922,0.00292978,-0.95947266,-0.18310547,0.54933317,0.91555528,,,,,
2023-03-13 12:39:04.703,-0.02319336,0.00000000,-0.96386719,-0.06103516,0.97659230,0.85451827,,,,,
2023-03-13 12:39:04.742,-0.02465820,0.00366222,-0.95874023,0.00000000,0.79348125,0.91555528,,,,,
2023-03-13 12:39:04.781,-0.02490234,0.01098666,-0.96044922,0.00000000,0.85451827,0.79348125,,,,,
2023-03-13 12:39:04.820,-0.02783203,0.00195318,-0.96215820,-0.06103516,0.73244423,0.79348125,,,,,
2023-03-13 12:39:04.859,-0.02587891,0.00903348,-0.96484375,-0.18310547,0.91555528,0.85451827,,,,,
2023-03-13 12:39:04.898,-0.02465820,0.00756859,-0.96264648,-0.12207031,0.73244423,0.91555528,,,,,
2023-03-13 12:39:04.937,-0.02636719,0.00610370,-0.96069336,-0.06103516,0.67140721,0.91555528,,,,,
2023-03-13 12:39:04.976,-0.02124023,0.00585955,-0.96411133,-0.06103516,0.91555528,0.79348125,,,,,
2023-03-13 12:39:05.015,-0.01928711,0.00659200,-0.96166992,-0.12207031,0.73244423,0.85451827,,,,,
2023-03-13 12:39:05.054,-0.02172852,0.00952177,-0.95971680,-0.06103516,0.85451827,0.85451827,,,,,
2023-03-13 12:39:05.093,-0.02392578,0.00683615,-0.95678711,-0.06103516,0.91555528,0.85451827,,,,,
2023-03-13 12:39:05.132,-0.02368164,0.00854518,-0.95825195,-0.24414062,0.61037019,0.97659230,,,,,
2023-03-13 12:39:05.171,-0.02465820,0.00317392,-0.96875000,-0.06103516,0.91555528,0.85451827,,,,,
2023-03-13 12:39:05.210,-0.02612305,0.00805689,-0.96142578,-0.12207031,0.79348125,0.91555528,,,,,
2023-03-13 12:39:05.250,-0.02514648,0.00708029,-0.96118164,-0.06103516,0.97659230,0.79348125,,,,,
2023-03-13 12:39:05.289,-0.02246094,0.00952177,-0.96533203,0.00000000,0.91555528,0.85451827,,,,,
2023-03-13 12:39:05.328,-0.02465820,0.00561541,-0.95971680,0.00000000,0.97659230,0.79348125,,,,,
2023-03-13 12:39:05.367,-0.02319336,0.00634785,-0.96362305,-0.06103516,0.85451827,0.85451827,,,,,
2023-03-13 12:39:05.406,-0.02441406,0.01074252,-0.95947266,-0.12207031,0.67140721,0.85451827,,,,,
2023-03-13 12:39:05.445,-0.02172852,0.00732444,-0.95776367,-0.06103516,0.97659230,0.91555528,,,,,
2023-03-13 12:39:05.484,-0.02636719,0.00415052,-0.95874023,0.06103702,0.91555528,0.79348125,,,,,
2023-03-13 12:39:05.523,-0.02490234,0.00610370,-0.95703125,-0.12207031,0.73244423,0.79348125,,,,,
2023-03-13 12:39:05.562,-0.02197266,0.00634785,-0.95971680,-0.06103516,0.91555528,0.85451827,,,,,
2023-03-13 12:39:05.601,-0.02270508,0.00341807,-0.95947266,-0.06103516,0.73244423,0.85451827,,,,,
2023-03-13 12:39:05.640,-0.02368164,0.01171911,-0.96118164,-0.18310547,0.85451827,0.85451827,,,2702,87,
2023-03-13 12:39:05.679,-0.02563477,0.00390637,-0.96191406,0.00000000,0.91555528,0.79348125,,,,,
2023-03-13 12:39:05.718,-0.02465820,0.00708029,-0.96240234,0.00000000,0.91555528,0.91555528,,,,,
2023-03-13 12:39:05.757,-0.02514648,0.00830103,-0.96044922,-0.18310547,0.79348125,0.79348125,,,,,
2023-03-13 12:39:05.796,-0.02270508,0.00830103,-0.96044922,-0.06103516,0.73244423,0.85451827,,,,,
2023-03-13 12:39:05.835,-0.01879883,0.00439467,-0.95507812,0.00000000,0.91555528,0.97659230,,,,,
2023-03-13 12:39:05.875,-0.02221680,0.00268563,-0.96069336,0.00000000,0.85451827,0.85451827,,,,,
2023-03-13 12:39:05.914,-0.02246094,0.00903348,-0.96118164,-0.06103516,0.91555528,0.85451827,,,,,
2023-03-13 12:39:05.953,-0.02856445,0.00341807,-0.95751953,-0.06103516,0.85451827,0.85451827,,,,,
2023-03-13 12:39:05.992,-0.02465820,0.00854518,-0.96484375,0.00000000,0.79348125,0.85451827,,,,,
2023-03-13 12:39:06.031,-0.02612305,0.00463881,-0.96606445,-0.06103516,0.85451827,0.67140721,,,,,
2023-03-13 12:39:06.070,-0.02270508,0.00708029,-0.96948242,-0.12207031,0.85451827,0.91555528,,,,,
2023-03-13 12:39:06.109,-0.02758789,0.00830103,-0.95703125,-0.12207031,0.73244423,0.91555528,,,,,
2023-03-13 12:39:06.148,-0.02343750,0.00341807,-0.96044922,-0.06103516,0.79348125,0.91555528,,,,,
2023-03-13 12:39:06.187,-0.01757812,0.00708029,-0.96337891,-0.12207031,0.79348125,0.79348125,,,,,
2023-03-13 12:39:06.226,-0.02124023,0.00512711,-0.96118164,-0.06103516,0.91555528,0.85451827,,,,,
2023-03-13 12:39:06.265,-0.02368164,0.00537126,-0.96191406,0.00000000,0.85451827,0.91555528,,,,,
2023-03-13 12:39:06.304,-0.02636719,0.00268563,-0.96118164,-0.06103516,0.79348125,0.79348125,,,,,
2023-03-13 12:39:06.343,-0.02392578,0.00146489,-0.95971680,-0.12207031,0.79348125,0.91555528,,,,,
2023-03-13 12:39:06.382,-0.02441406,0.00634785,-0.96337891,-0.06103516,0.85451827,0.85451827,,,,,
2023-03-13 12:39:06.421,-0.02709961,0.00341807,-0.96557617,0.00000000,0.73244423,0.79348125,,,,,
2023-03-13 12:39:06.460,-0.02172852,0.00585955,-0.96044922,-0.12207031,0.79348125,0.85451827,,,,,
2023-03-13 12:39:06.500,-0.02050781,0.00805689,-0.96337891,0.00000000,0.91555528,0.79348125,,,,,
2023-03-13 12:39:06.539,-0.02026367,0.00952177,-0.96752930,-0.06103516,0.91555528,0.85451827,,,,,
2023-03-13 12:39:06.578,-0.02465820,-0.00219727,-0.96044922,-0.12207031,0.73244423,0.85451827,,,,,
2023-03-13 12:39:06.617,-0.02368164,0.00415052,-0.96142578,-0.12207031,0.85451827,0.73244423,,,,,
2023-03-13 12:39:06.656,-0.01928711,0.00708029,-0.96386719,-0.06103516,0.97659230,0.91555528,,,,,
2023-03-13 12:39:06.695,-0.02392578,0.00976592,-0.96679688,-0.06103516,0.79348125,0.79348125,,,,,
2023-03-13 12:39:06.734,-0.02050781,0.00537126,-0.96044922,-0.12207031,0.79348125,0.85451827,,,,,
2023-03-13 12:39:06.773,-0.02905273,0.00903348,-0.95776367,-0.12207031,0.85451827,0.91555528,,,,,
2023-03-13 12:39:06.812,-0.02441406,0.01049837,-0.96118164,-0.12207031,0.85451827,0.79348125,,,,,
2023-03-13 12:39:06.851,-0.02343750,0.00097659,-0.96801758,-0.06103516,0.67140721,0.85451827,,,,,
2023-03-13 12:39:06.890,-0.02294922,0.00073244,-0.96459961,-0.06103516,0.85451827,0.85451827,,,,,
2023-03-13 12:39:06.929,-0.02124023,0.00585955,-0.96313477,-0.06103516,0.91555528,0.85451827,,,,,
2023-03-13 12:39:06.968,-0.02465820,0.00634785,-0.96240234,-0.12207031,0.79348125,0.79348125,,,,,
2023-03-13 12:39:07.007,-0.02465820,0.00683615,-0.95996094,0.00000000,0.85451827,0.91555528,,,,,
2023-03-13 12:39:07.046,-0.02343750,0.01123081,-0.95849609,-0.12207031,0.79348125,0.91555528,,,,,
2023-03-13 12:39:07.085,-0.02172852,0.00585955,-0.96313477,-0.06103516,0.79348125,0.79348125,,,,,
2023-03-13 12:39:07.125,-0.01928711,0.00634785,-0.95971680,0.00000000,0.85451827,0.91555528,,,,,
2023-03-13 12:39:07.164,-0.02172852,0.00732444,-0.96582031,0.00000000,0.79348125,0.79348125,,,,,
2023-03-13 12:39:07.203,-0.02563477,0.00463881,-0.96093750,-0.06103516,0.73244423,0.79348125,,,,,
2023-03-13 12:39:07.242,-0.02490234,0.00463881,-0.96142578,0.06103702,0.85451827,0.85451827,,,,,
2023-03-13 12:39:07.281,-0.02441406,0.00659200,-0.95434570,-0.06103516,0.91555528,0.85451827,,,,,
2023-03-13 12:39:07.320,-0.02490234,0.00927763,-0.96606445,-0.12207031,0.79348125,0.85451827,,,2709,87,
2023-03-13 12:39:07.359,-0.02221680,0.00610370,-0.96191406,-0.06103516,0.79348125,0.79348125,,,,,
2023-03-13 12:39:07.398,-0.02587891,0.00390637,-0.96533203,0.00000000,0.85451827,0.79348125,,,,,
2023-03-13 12:39:07.437,-0.02832031,0.00122074,-0.96386719,0.00000000,0.85451827,0.73244423,,,,,
2023-03-13 12:39:07.476,-0.02856445,0.00415052,-0.96459961,-0.12207031,0.85451827,0.85451827,,,,,
2023-03-13 12:39:07.515,-0.02783203,-0.00219727,-0.96337891,0.00000000,0.91555528,0.85451827,,,,,
2023-03-13 12:39:07.554,-0.02050781,0.00634785,-0.96337891,0.00000000,0.85451827,0.85451827,,,,,
2023-03-13 12:39:07.593,-0.02197266,0.00366222,-0.95971680,-0.06103516,0.91555528,0.91555528,,,,,
2023-03-13 12:39:07.632,-0.02832031,0.00708029,-0.96240234,-0.18310547,0.79348125,0.73244423,,,,,
2023-03-13 12:39:07.671,-0.02587891,0.00415052,-0.95849609,-0.06103516,0.85451827,0.85451827,,,,,
2023-03-13 12:39:07.710,-0.02124023,0.00756859,-0.96215820,-0.06103516,0.85451827,0.97659230,,,,,
2023-03-13 12:39:07.750,-0.02124023,0.00610370,-0.96606445,-0.12207031,0.79348125,0.79348125,,,,,
2023-03-13 12:39:07.789,-0.02441406,0.00512711,-0.96362305,-0.06103516,0.97659230,0.85451827,,,,,
2023-03-13 12:39:07.828,-0.02416992,0.00830103,-0.96044922,-0.18310547,0.91555528,0.85451827,,,,,
2023-03-13 12:39:07.867,-0.02172852,0.00854518,-0.95849609,0.00000000,0.79348125,0.79348125,,,,,
2023-03-13 12:39:07.906,-0.02661133,0.00048830,-0.96630859,-0.12207031,0.73244423,0.85451827,,,,,
2023-03-13 12:39:07.945,-0.02026367,0.00976592,-0.95922852,-0.06103516,0.79348125,0.79348125,,,,,
2023-03-13 12:39:07.984,-0.02490234,0.00610370,-0.95581055,0.00000000,0.85451827,0.85451827,,,,,
2023-03-13 12:39:08.023,-0.02734375,0.00488296,-0.96752930,0.06103702,0.79348125,0.67140721,,,,,
2023-03-13 12:39:08.062,-0.02416992,0.00415052,-0.95947266,-0.06103516,0.79348125,0.79348125,,,,,
2023-03-13 12:39:08.101,-0.02343750,0.00366222,-0.95971680,-0.12207031,0.97659230,0.79348125,,,,,
2023-03-13 12:39:08.140,-0.02221680,0.00366222,-0.96313477,-0.06103516,0.73244423,0.85451827,,,,,
2023-03-13 12:39:08.179,-0.02392578,0.00244148,-0.96044922,-0.12207031,0.61037019,0.85451827,,,,,
2023-03-13 12:39:08.218,-0.02221680,0.00927763,-0.96118164,0.00000000,0.91555528,0.85451827,,,,,
2023-03-13 12:39:08.257,-0.02661133,0.00756859,-0.96240234,-0.06103516,0.73244423,0.85451827,,,,,
2023-03-13 12:39:08.296,-0.02758789,0.00512711,-0.96313477,-0.06103516,0.85451827,0.91555528,,,,,
2023-03-13 12:39:08.335,-0.02416992,0.00683615,-0.96362305,-0.06103516,0.85451827,0.73244423,,,,,
2023-03-13 12:39:08.375,-0.02416992,0.00708029,-0.95898438,-0.12207031,0.85451827,0.79348125,,,,,
2023-03-13 12:39:08.414,-0.02612305,0.00634785,-0.95947266,0.00000000,0.79348125,0.97659230,,,,,
2023-03-13 12:39:08.453,-0.02832031,0.00683615,-0.96215820,0.00000000,0.85451827,0.85451827,,,,,
2023-03-13 12:39:08.492,-0.02197266,0.00488296,-0.95996094,-0.18310547,0.85451827,0.85451827,,,,,
2023-03-13 12:39:08.531,-0.02416992,0.00878933,-0.96093750,-0.12207031,0.67140721,0.85451827,,,,,
2023-03-13 12:39:08.570,-0.02490234,0.00976592,-0.96240234,-0.18310547,0.79348125,0.91555528,,,,,
2023-03-13 12:39:08.609,-0.02270508,0.00952177,-0.95800781,-0.06103516,0.85451827,0.73244423,,,,,
2023-03-13 12:39:08.648,-0.02172852,0.00097659,-0.96044922,-0.06103516,0.97659230,0.91555528,,,,,
2023-03-13 12:39:08.687,-0.02587891,0.00708029,-0.95605469,-0.06103516,0.73244423,0.79348125,,,,,
2023-03-13 12:39:08.726,-0.02905273,0.00439467,-0.95800781,0.00000000,0.73244423,0.79348125,,,,,
2023-03-13 12:39:08.765,-0.02050781,0.00585955,-0.96142578,-0.12207031,0.85451827,0.79348125,,,,,
2023-03-13 12:39:08.804,-0.02221680,-0.00122070,-0.96435547,-0.12207031,0.85451827,0.97659230,,,,,
2023-03-13 12:39:08.843,-0.02368164,0.00390637,-0.96118164,-0.06103516,0.79348125,0.85451827,,,,,
2023-03-13 12:39:08.882,-0.02465820,0.00878933,-0.96435547,-0.18310547,0.79348125,0.97659230,,,,,
2023-03-13 12:39:08.921,-0.02587891,0.00585955,-0.96386719,-0.12207031,0.91555528,0.97659230,,,,,
2023-03-13 12:39:08.960,-0.02099609,0.00024415,-0.96118164,-0.06103516,0.73244423,0.79348125,,,,,
2023-03-13 12:39:09.000,-0.02294922,0.00854518,-0.96533203,0.00000000,0.79348125,0.79348125,,,2705,87,
2023-03-13 12:39:09.039,-0.02709961,0.00146489,-0.96044922,0.00000000,0.73244423,0.85451827,,,,,
2023-03-13 12:39:09.078,-0.02099609,0.00927763,-0.95654297,0.00000000,0.91555528,0.85451827,,,,,
2023-03-13 12:39:09.117,-0.01977539,0.00610370,-0.96533203,-0.06103516,0.79348125,0.73244423,,,,,
2023-03-13 12:39:09.156,-0.02148438,0.00610370,-0.96801758,-0.12207031,0.79348125,0.97659230,,,,,
2023-03-13 12:39:09.195,-0.02026367,0.00927763,-0.96313477,-0.12207031,0.91555528,0.91555528,,,,,
2023-03-13 12:39:09.234,-0.02392578,0.00537126,-0.96459961,-0.06103516,0.79348125,0.79348125,,,,,
2023-03-13 12:39:09.273,-0.02490234,0.00317392,-0.95971680,-0.06103516,0.91555528,0.91555528,,,,,
2023-03-13 12:39:09.312,-0.02416992,0.00122074,-0.96484375,-0.06103516,0.91555528,0.91555528,,,,,
2023-03-13 12:39:09.351,-0.02416992,0.00415052,-0.96264648,-0.12207031,0.85451827,0.79348125,,,,,
2023-03-13 12:39:09.390,-0.02416992,0.00683615,-0.96533203,-0.06103516,0.79348125,0.79348125,,,,,
2023-03-13 12:39:09.429,-0.02124023,0.00659200,-0.96533203,-0.06103516,0.97659230,0.85451827,,,,,
2023-03-13 12:39:09.468,-0.02270508,0.00830103,-0.96362305,-0.06103516,0.85451827,0.79348125,,,,,
2023-03-13 12:39:09.507,-0.02441406,0.00708029,-0.96069336,-0.12207031,0.85451827,0.79348125,,,,,
2023-03-13 12:39:09.546,-0.02343750,0.00341807,-0.96533203,-0.06103516,0.91555528,0.85451827,,,,,
2023-03-13 12:39:09.585,-0.02441406,0.00317392,-0.96191406,0.00000000,0.85451827,0.91555528,,,,,
2023-03-13 12:39:09.625,-0.02148438,0.00512711,-0.95898438,-0.06103516,0.85451827,0.85451827,,,,,
2023-03-13 12:39:09.664,-0.02319336,0.00634785,-0.96459961,-0.06103516,0.91555528,0.85451827,,,,,
2023-03-13 12:39:09.703,-0.02392578,0.00634785,-0.95971680,0.00000000,0.79348125,0.85451827,,,,,
2023-03-13 12:39:09.742,-0.02343750,0.00366222,-0.96264648,-0.18310547,0.73244423,0.79348125,,,,,
2023-03-13 12:39:09.781,-0.02587891,0.00878933,-0.96166992,-0.12207031,0.79348125,0.97659230,,,,,
2023-03-13 12:39:09.820,-0.02246094,0.00732444,-0.96069336,-0.12207031,0.73244423,0.91555528,,,,,
2023-03-13 12:39:09.859,-0.02026367,0.00659200,-0.95678711,-0.12207031,0.85451827,0.91555528,,,,,
2023-03-13 12:39:09.898,-0.02221680,0.00732444,-0.96313477,0.00000000,0.73244423,0.91555528,,,,,
2023-03-13 12:39:09.937,-0.02075195,0.00634785,-0.96044922,-0.06103516,0.91555528,0.79348125,,,,,
2023-03-13 12:39:09.976,-0.02465820,0.00341807,-0.96411133,-0.06103516,0.91555528,0.91555528,,,,,
2023-03-13 12:39:10.015,-0.02246094,0.00756859,-0.95849609,-0.06103516,0.79348125,0.85451827,,,,,
2023-03-13 12:39:10.054,-0.02490234,0.00512711,-0.95971680,-0.12207031,0.91555528,0.85451827,,,,,
2023-03-13 12:39:10.093,-0.02148438,0.00341807,-0.96337891,0.06103702,0.85451827,0.85451827,,,,,
2023-03-13 12:39:10.132,-0.02148438,0.00415052,-0.95898438,0.06103702,0.85451827,0.79348125,,,,,
2023-03-13 12:39:10.171,-0.02539062,0.00585955,-0.96142578,-0.12207031,0.85451827,0.79348125,,,,,
2023-03-13 12:39:10.210,-0.02441406,0.00219733,-0.95996094,-0.18310547,1.03762932,0.91555528,,,,,
2023-03-13 12:39:10.250,-0.02221680,0.00097659,-0.96240234,0.00000000,0.79348125,0.85451827,,,,,
2023-03-13 12:39:10.289,-0.02197266,0.00708029,-0.96484375,-0.06103516,0.85451827,0.85451827,,,,,
2023-03-13 12:39:10.328,-0.02416992,0.00830103,-0.96240234,-0.06103516,0.91555528,0.91555528,,,,,
2023-03-13 12:39:10.367,-0.02124023,0.00463881,-0.96435547,0.00000000,0.73244423,0.79348125,,,,,
2023-03-13 12:39:10.406,-0.02465820,0.00463881,-0.96191406,0.00000000,0.91555528,0.79348125,,,,,
2023-03-13 12:39:10.445,-0.02783203,0.00952177,-0.96655273,-0.18310547,0.73244423,0.85451827,,,,,
2023-03-13 12:39:10.484,-0.02783203,0.00708029,-0.95874023,-0.06103516,0.97659230,0.85451827,,,,,
2023-03-13 12:39:10.523,-0.02343750,0.00561541,-0.96606445,0.00000000,0.79348125,0.85451827,,,,,
2023-03-13 12:39:10.562,-0.01953125,0.00610370,-0.96044922,-0.12207031,0.79348125,0.85451827,,,,,
2023-03-13 12:39:10.601,-0.02734375,0.00585955,-0.96386719,-0.06103516,0.79348125,0.85451827,,,,,
2023-03-13 12:39:10.640,-0.02026367,0.00561541,-0.95996094,-0.12207031,0.73244423,0.85451827,,,2704,87,
2023-03-13 12:39:10.679,-0.01831055,0.01074252,-0.95751953,-0.06103516,0.85451827,0.85451827,,,,,
2023-03-13 12:39:10.718,-0.02099609,0.00805689,-0.96044922,-0.06103516,0.85451827,0.73244423,,,,,
2023-03-13 12:39:10.757,-0.03100586,0.00683615,-0.96166992,-0.06103516,0.79348125,0.91555528,,,,,
2023-03-13 12:39:10.796,-0.02441406,0.00708029,-0.96337891,-0.18310547,0.79348125,0.79348125,,,,,
2023-03-13 12:39:10.835,-0.02587891,0.00952177,-0.95971680,-0.18310547,0.73244423,0.91555528,,,,,
2023-03-13 12:39:10.875,-0.02636719,0.00073244,-0.96728516,0.06103702,0.85451827,0.79348125,,,,,
2023-03-13 12:39:10.914,-0.02392578,0.00512711,-0.96582031,-0.06103516,0.73244423,1.03762932,,,,,
2023-03-13 12:39:10.953,-0.02319336,0.00830103,-0.96240234,0.00000000,0.97659230,0.91555528,,,,,
2023-03-13 12:39:10.992,-0.02758789,0.00537126,-0.96630859,-0.18310547,0.73244423,0.91555528,,,,,
2023-03-13 12:39:11.031,-0.02270508,0.00415052,-0.97094727,-0.06103516,0.97659230,0.97659230,,,,,
2023-03-13 12:39:11.070,-0.02587891,0.00878933,-0.96313477,-0.06103516,0.79348125,0.79348125,,,,,
2023-03-13 12:39:11.109,-0.02343750,0.00659200,-0.96093750,-0.06103516,0.85451827,0.85451827,,,,,
2023-03-13 12:39:11.148,-0.02221680,0.00708029,-0.96630859,-0.18310547,0.67140721,0.85451827,,,,,
2023-03-13 12:39:11.187,-0.02075195,0.00781274,-0.96337891,-0.06103516,0.85451827,0.79348125,,,,,
2023-03-13 12:39:11.226,-0.02246094,0.01074252,-0.96118164,-0.12207031,0.91555528,0.91555528,,,,,
2023-03-13 12:39:11.265,-0.02294922,0.00878933,-0.95703125,-0.12207031,0.79348125,0.85451827,,,,,
2023-03-13 12:39:11.304,-0.02465820,0.00390637,-0.96142578,-0.06103516,0.79348125,0.97659230,,,,,
2023-03-13 12:39:11.343,-0.02612305,0.00488296,-0.95947266,0.00000000,0.91555528,0.85451827,,,,,
2023-03-13 12:39:11.382,-0.02075195,0.00561541,-0.96142578,-0.12207031,0.73244423,0.79348125,,,,,
2023-03-13 12:39:11.421,-0.02270508,0.00756859,-0.96533203,-0.06103516,0.97659230,0.91555528,,,,,
2023-03-13 12:39:11.460,-0.02124023,0.01001007,-0.95556641,-0.12207031,0.73244423,0.85451827,,,,,
2023-03-13 12:39:11.500,-0.02416992,0.01025422,-0.96630859,0.00000000,0.85451827,0.85451827,,,,,
2023-03-13 12:39:11.539,-0.02172852,0.00878933,-0.95947266,0.00000000,0.79348125,0.79348125,,,,,
2023-03-13 12:39:11.578,-0.02148438,0.00708029,-0.96044922,-0.06103516,0.73244423,0.97659230,,,,,
2023-03-13 12:39:11.617,-0.02294922,0.00390637,-0.96240234,-0.18310547,0.91555528,0.85451827,,,,,
2023-03-13 12:39:11.656,-0.02221680,0.00708029,-0.96557617,-0.12207031,0.73244423,0.85451827,,,,,
2023-03-13 12:39:11.695,-0.02465820,0.00463881,-0.96142578,-0.06103516,0.97659230,0.73244423,,,,,
2023-03-13 12:39:11.734,-0.02050781,0.00634785,-0.96337891,-0.06103516,0.85451827,0.91555528,,,,,
2023-03-13 12:39:11.773,-0.02148438,0.00561541,-0.95849609,-0.06103516,0.91555528,0.85451827,,,,,
2023-03-13 12:39:11.812,-0.02465820,0.00512711,-0.95776367,-0.12207031,0.85451827,0.79348125,,,,,
2023-03-13 12:39:11.851,-0.02587891,0.00708029,-0.95849609,0.00000000,0.73244423,0.73244423,,,,,
2023-03-13 12:39:11.890,-0.02685547,0.00292978,-0.95800781,-0.06103516,0.91555528,0.85451827,,,,,
2023-03-13 12:39:11.929,-0.02001953,0.00610370,-0.96240234,-0.12207031,0.91555528,0.79348125,,,,,
2023-03-13 12:39:11.968,-0.02270508,0.00219733,-0.96411133,-0.12207031,0.73244423,0.91555528,,,,,
2023-03-13 12:39:12.007,-0.02636719,0.00805689,-0.96264648,-0.06103516,0.91555528,0.97659230,,,,,
2023-03-13 12:39:12.046,-0.02392578,0.00708029,-0.96411133,-0.06103516,0.79348125,0.79348125,,,,,
2023-03-13 12:39:12.085,-0.02612305,0.00927763,-0.96093750,-0.12207031,0.79348125,0.91555528,,,,,
2023-03-13 12:39:12.125,-0.02612305,0.00708029,-0.95996094,0.00000000,0.91555528,0.79348125,,,,,
2023-03-13 12:39:12.164,-0.01904297,0.00708029,-0.96484375,-0.18310547,0.85451827,0.91555528,,,,,
2023-03-13 12:39:12.203,-0.01904297,0.00854518,-0.96289062,-0.18310547,0.85451827,0.85451827,,,,,
2023-03-13 12:39:12.242,-0.01928711,0.00634785,-0.96606445,-0.06103516,0.91555528,0.85451827,,,,,
2023-03-13 12:39:12.281,-0.02416992,0.00683615,-0.96337891,0.00000000,0.85451827,0.73244423,,,,,
2023-03-13 12:39:12.320,-0.02416992,0.00463881,-0.95996094,-0.06103516,0.79348125,0.97659230,,,2705,87,
2023-03-13 12:39:12.359,-0.02758789,0.00390637,-0.96044922,-0.06103516,0.85451827,0.79348125,,,,,
2023-03-13 12:39:12.398,-0.02221680,0.00903348,-0.96508789,-0.06103516,0.79348125,0.73244423,,,,,
2023-03-13 12:39:12.437,-0.02294922,0.00366222,-0.95629883,-0.12207031,0.67140721,0.85451827,,,,,
2023-03-13 12:39:12.476,-0.02612305,0.00488296,-0.96240234,-0.12207031,0.91555528,0.79348125,,,,,
2023-03-13 12:39:12.515,-0.02172852,0.00366222,-0.95996094,-0.06103516,0.91555528,0.91555528,,,,,
2023-03-13 12:39:12.554,-0.02636719,0.00854518,-0.96435547,-0.06103516,0.67140721,0.91555528,,,,,
2023-03-13 12:39:12.593,-0.02294922,0.00952177,-0.96118164,-0.06103516,0.91555528,0.79348125,,,,,
2023-03-13 12:39:12.632,-0.02539062,0.00708029,-0.95898438,0.00000000,0.85451827,0.91555528,,,,,
2023-03-13 12:39:12.671,-0.02465820,0.00317392,-0.96411133,-0.12207031,0.91555528,0.91555528,,,,,
2023-03-13 12:39:12.710,-0.02465820,0.00415052,-0.96606445,-0.12207031,0.73244423,0.79348125,,,,,
2023-03-13 12:39:12.750,-0.02612305,0.00244148,-0.95874023,-0.06103516,0.91555528,0.85451827,,,,,
2023-03-13 12:39:12.789,-0.02563477,0.00903348,-0.95874023,-0.06103516,0.79348125,0.85451827,,,,,
2023-03-13 12:39:12.828,-0.02294922,0.00537126,-0.96728516,-0.06103516,0.79348125,0.91555528,,,,,
2023-03-13 12:39:12.867,-0.02026367,0.00732444,-0.96044922,-0.06103516,0.67140721,0.79348125,,,,,
2023-03-13 12:39:12.906,-0.02368164,0.00976592,-0.96142578,-0.06103516,0.79348125,0.91555528,,,,,
2023-03-13 12:39:12.945,-0.02270508,0.00781274,-0.96142578,-0.06103516,0.85451827,0.91555528,,,,,
2023-03-13 12:39:12.984,-0.01977539,0.00976592,-0.95776367,0.00000000,0.67140721,0.85451827,,,,,
2023-03-13 12:39:13.023,-0.02148438,0.00805689,-0.95922852,-0.06103516,0.79348125,0.85451827,,,,,
2023-03-13 12:39:13.062,-0.02343750,0.00024415,-0.96679688,0.00000000,0.91555528,0.79348125,,,,,
2023-03-13 12:39:13.101,-0.02270508,0.00683615,-0.96264648,-0.18310547,0.91555528,0.97659230,,,,,
2023-03-13 12:39:13.140,-0.02221680,0.00415052,-0.95874023,-0.06103516,0.79348125,0.85451827,,,,,
2023-03-13 12:39:13.179,-0.02636719,0.00952177,-0.96386719,-0.06103516,0.73244423,0.85451827,,,,,
2023-03-13 12:39:13.218,-0.02441406,0.00537126,-0.95971680,-0.12207031,0.91555528,0.79348125,,,,,
2023-03-13 12:39:13.257,-0.02392578,0.00805689,-0.96166992,0.00000000,0.67140721,0.85451827,,,,,
2023-03-13 12:39:13.296,-0.02050781,0.00341807,-0.96191406,-0.06103516,0.85451827,0.85451827,,,,,
2023-03-13 12:39:13.335,-0.02221680,0.00415052,-0.96313477,-0.12207031,0.97659230,0.85451827,,,,,
2023-03-13 12:39:13.375,-0.02221680,0.00659200,-0.96093750,-0.06103516,0.85451827,0.79348125,,,,,
2023-03-13 12:39:13.414,-0.02465820,0.00585955,-0.96752930,-0.06103516,0.73244423,0.85451827,,,,,
2023-03-13 12:39:13.453,-0.02221680,0.00708029,-0.96240234,0.00000000,0.97659230,0.79348125,,,,,
2023-03-13 12:39:13.492,-0.02368164,0.00610370,-0.95581055,-0.12207031,0.85451827,0.91555528,,,,,
2023-03-13 12:39:13.531,-0.02270508,0.00317392,-0.96557617,-0.06103516,0.67140721,0.79348125,,,,,
2023-03-13 12:39:13.570,-0.02075195,0.00805689,-0.95581055,0.00000000,0.73244423,0.85451827,,,,,
2023-03-13 12:39:13.609,-0.02392578,0.00366222,-0.95849609,-0.06103516,1.03762932,0.79348125,,,,,
2023-03-13 12:39:13.648,-0.02539062,0.00976592,-0.96435547,-0.06103516,0.67140721,0.91555528,,,,,
2023-03-13 12:39:13.687,-0.02807617,0.01001007,-0.96313477,-0.06103516,0.73244423,0.85451827,,,,,
2023-03-13 12:39:13.726,-0.02148438,0.00878933,-0.95703125,-0.06103516,0.91555528,0.85451827,,,,,
2023-03-13 12:39:13.765,-0.02392578,0.00317392,-0.96411133,-0.12207031,0.67140721,0.91555528,,,,,
2023-03-13 12:39:13.804,-0.02148438,0.00805689,-0.96044922,0.00000000,0.79348125,0.85451827,,,,,
2023-03-13 12:39:13.843,-0.02587891,0.00708029,-0.96386719,-0.18310547,0.73244423,0.85451827,,,,,
2023-03-13 12:39:13.882,-0.02587891,0.00366222,-0.96313477,0.00000000,0.85451827,0.73244423,,,,,
2023-03-13 12:39:13.921,-0.02465820,0.00708029,-0.96240234,-0.06103516,0.85451827,0.85451827,,,,,
2023-03-13 12:39:13.960,-0.01928711,0.00537126,-0.96411133,-0.12207031,0.97659230,0.67140721,,,,,
2023-03-13 12:39:14.000,-0.02514648,0.00903348,-0.96044922,-0.06103516,0.85451827,0.91555528,,,2711,87,
2023-03-13 12:39:14.039,-0.02758789,0.00146489,-0.96166992,-0.06103516,0.79348125,0.85451827,,,,,
2023-03-13 12:39:14.078,-0.02124023,0.01196326,-0.96362305,0.00000000,0.85451827,0.85451827,,,,,
2023-03-13 12:39:14.117,-0.01953125,0.00292978,-0.96215820,-0.12207031,0.79348125,0.79348125,,,,,
2023-03-13 12:39:14.156,-0.01928711,0.00488296,-0.96240234,0.00000000,0.85451827,0.73244423,,,,,
2023-03-13 12:39:14.195,-0.02441406,0.00903348,-0.95703125,-0.18310547,0.73244423,0.97659230,,,,,
2023-03-13 12:39:14.234,-0.01708984,0.00463881,-0.95996094,-0.06103516,0.73244423,0.91555528,,,,,
2023-03-13 12:39:14.273,-0.01782227,0.00610370,-0.96826172,0.00000000,0.85451827,0.79348125,,,,,
2023-03-13 12:39:14.312,-0.01953125,0.00219733,-0.96801758,-0.06103516,0.85451827,0.85451827,,,,,
2023-03-13 12:39:14.351,-0.01928711,0.00390637,-0.96044922,-0.06103516,0.67140721,0.91555528,,,,,
2023-03-13 12:39:14.390,-0.02441406,0.00585955,-0.96606445,-0.06103516,0.85451827,0.97659230,,,,,
2023-03-13 12:39:14.429,-0.02294922,0.00366222,-0.96337891,-0.06103516,0.67140721,0.85451827,,,,,
2023-03-13 12:39:14.468,-0.02148438,0.00756859,-0.95971680,-0.06103516,0.91555528,0.79348125,,,,,
2023-03-13 12:39:14.507,-0.02465820,0.00561541,-0.95996094,-0.12207031,0.85451827,0.91555528,,,,,
2023-03-13 12:39:14.546,-0.02392578,0.00756859,-0.95849609,-0.12207031,0.85451827,0.91555528,,,,,
2023-03-13 12:39:14.585,-0.02270508,0.00756859,-0.95776367,-0.12207031,0.67140721,0.85451827,,,,,
2023-03-13 12:39:14.625,-0.02465820,0.00585955,-0.96093750,-0.06103516,0.91555528,0.85451827,,,,,
2023-03-13 12:39:14.664,-0.01660156,0.00683615,-0.95971680,-0.06103516,0.85451827,0.85451827,,,,,
2023-03-13 12:39:14.703,-0.02172852,0.00708029,-0.96337891,-0.06103516,0.73244423,0.79348125,,,,,
2023-03-13 12:39:14.742,-0.02221680,0.00634785,-0.96264648,-0.06103516,0.97659230,0.91555528,,,,,
2023-03-13 12:39:14.781,-0.02319336,0.00610370,-0.95776367,-0.12207031,0.73244423,0.91555528,,,,,
2023-03-13 12:39:14.820,-0.02587891,0.00903348,-0.96044922,-0.06103516,0.73244423,0.85451827,,,,,
2023-03-13 12:39:14.859,-0.02392578,0.00561541,-0.96166992,-0.06103516,0.85451827,0.85451827,,,,,
2023-03-13 12:39:14.898,-0.02124023,0.00512711,-0.96362305,-0.12207031,0.91555528,0.85451827,,,,,
2023-03-13 12:39:14.937,-0.02172852,0.00756859,-0.95434570,0.00000000,0.73244423,0.73244423,,,,,
2023-03-13 12:39:14.976,-0.02197266,0.00756859,-0.95971680,-0.12207031,0.85451827,0.91555528,,,,,
2023-03-13 12:39:15.015,-0.02343750,0.00927763,-0.96191406,-0.12207031,0.97659230,0.73244423,,,,,
2023-03-13 12:39:15.054,-0.02075195,0.00048830,-0.96118164,-0.06103516,0.79348125,0.79348125,,,,,
2023-03-13 12:39:15.093,-0.02124023,0.00537126,-0.96337891,-0.18310547,0.85451827,0.79348125,,,,,
2023-03-13 12:39:15.132,-0.02099609,0.00708029,-0.96337891,-0.12207031,0.73244423,0.79348125,,,,,
2023-03-13 12:39:15.171,-0.02050781,0.00830103,-0.96411133,0.00000000,0.97659230,0.79348125,,,,,
2023-03-13 12:39:15.210,-0.02587891,0.00512711,-0.96752930,-0.12207031,0.79348125,0.85451827,,,,,
2023-03-13 12:39:15.250,-0.02270508,0.00341807,-0.96069336,0.00000000,0.85451827,0.79348125,,,,,
2023-03-13 12:39:15.289,-0.01831055,0.00683615,-0.95751953,0.00000000,0.85451827,0.91555528,,,,,
2023-03-13 12:39:15.328,-0.02636719,0.00952177,-0.96093750,-0.24414062,0.67140721,0.79348125,,,,,
2023-03-13 12:39:15.367,-0.02636719,0.00585955,-0.95947266,0.06103702,0.91555528,0.85451827,,,,,
2023-03-13 12:39:15.406,-0.02758789,0.00659200,-0.95947266,0.00000000,0.91555528,0.79348125,,,,,
2023-03-13 12:39:15.445,-0.02343750,0.00292978,-0.96459961,-0.12207031,0.85451827,0.79348125,,,,,
2023-03-13 12:39:15.484,-0.02270508,0.00683615,-0.96508789,-0.06103516,0.85451827,0.73244423,,,,,
2023-03-13 12:39:15.523,-0.02343750,0.00708029,-0.96606445,-0.06103516,0.79348125,0.67140721,,,,,
2023-03-13 12:39:15.562,-0.02441406,0.00390637,-0.96093750,-0.12207031,0.91555528,0.79348125,,,,,
2023-03-13 12:39:15.601,-0.02026367,0.00561541,-0.96240234,-0.12207031,0.73244423,0.85451827,,,,,
2023-03-13 12:39:15.640,-0.02246094,0.00488296,-0.96264648,-0.06103516,0.79348125,0.79348125,,,2707,87,
2023-03-13 12:39:15.679,-0.02441406,0.00463881,-0.96362305,-0.12207031,0.91555528,0.79348125,,,,,
2023-03-13 12:39:15.718,-0.02197266,0.00512711,-0.96142578,-0.18310547,0.85451827,0.97659230,,,,,
2023-03-13 12:39:15.757,-0.02246094,0.00903348,-0.96655273,-0.18310547,0.73244423,0.91555528,,,,,
2023-03-13 12:39:15.796,-0.02368164,0.00903348,-0.96386719,-0.12207031,0.79348125,0.79348125,,,,,
2023-03-13 12:39:15.835,-0.02148438,0.00805689,-0.95874023,0.06103702,0.91555528,0.85451827,,,,,
2023-03-13 12:39:15.875,-0.02368164,0.00830103,-0.96533203,-0.24414062,0.73244423,0.97659230,,,,,
2023-03-13 12:39:15.914,-0.02319336,0.00561541,-0.96142578,-0.06103516,0.91555528,0.91555528,,,,,
2023-03-13 12:39:15.953,-0.02026367,0.00708029,-0.96289062,-0.06103516,0.91555528,0.79348125,,,,,
2023-03-13 12:39:15.992,-0.02661133,0.00585955,-0.96142578,-0.06103516,0.79348125,0.97659230,,,,,
2023-03-13 12:39:16.031,-0.02026367,0.00561541,-0.96166992,0.12207404,0.85451827,0.79348125,,,,,
2023-03-13 12:39:16.070,-0.01904297,0.00903348,-0.96630859,-0.12207031,0.79348125,0.91555528,,,,,
2023-03-13 12:39:16.109,-0.02294922,0.00830103,-0.96728516,-0.06103516,0.97659230,0.91555528,,,,,
2023-03-13 12:39:16.148,-0.02270508,0.00708029,-0.96435547,-0.12207031,0.73244423,0.91555528,,,,,
2023-03-13 12:39:16.187,-0.02343750,0.00366222,-0.96752930,-0.06103516,0.73244423,0.85451827,,,,,
2023-03-13 12:39:16.226,-0.02343750,0.00585955,-0.96459961,-0.06103516,0.85451827,0.91555528,,,,,
2023-03-13 12:39:16.265,-0.02539062,0.00439467,-0.96069336,-0.24414062,0.61037019,0.97659230,,,,,
2023-03-13 12:39:16.304,-0.02612305,0.00390637,-0.95996094,0.00000000,0.91555528,0.97659230,,,,,
2023-03-13 12:39:16.343,-0.02563477,0.00512711,-0.96313477,-0.12207031,0.79348125,0.79348125,,,,,
2023-03-13 12:39:16.382,-0.02661133,0.00585955,-0.96240234,0.06103702,0.67140721,0.97659230,,,,,
2023-03-13 12:39:16.421,-0.02026367,0.00122074,-0.96069336,0.00000000,0.79348125,0.79348125,,,,,
2023-03-13 12:39:16.460,-0.02343750,0.01220740,-0.96044922,-0.06103516,0.85451827,0.97659230,,,,,
2023-03-13 12:39:16.500,-0.02490234,0.00561541,-0.96386719,-0.12207031,0.73244423,0.79348125,,,,,
2023-03-13 12:39:16.539,-0.02246094,0.00463881,-0.96069336,-0.06103516,0.73244423,0.85451827,,,,,
2023-03-13 12:39:16.578,-0.02294922,0.00585955,-0.95947266,-0.12207031,0.85451827,0.97659230,,,,,
2023-03-13 12:39:16.617,-0.01904297,0.00341807,-0.96093750,-0.06103516,0.91555528,0.79348125,,,,,
2023-03-13 12:39:16.656,-0.02099609,0.00292978,-0.96069336,0.00000000,0.73244423,0.79348125,,,,,
2023-03-13 12:39:16.695,-0.02807617,0.00463881,-0.96655273,-0.12207031,0.97659230,0.79348125,,,,,
2023-03-13 12:39:16.734,-0.02197266,0.01074252,-0.96386719,-0.12207031,0.85451827,0.85451827,,,,,
2023-03-13 12:39:16.773,-0.02319336,0.00585955,-0.96337891,-0.06103516,0.85451827,0.85451827,,,,,
2023-03-13 12:39:16.812,-0.02368164,0.00341807,-0.96484375,-0.12207031,0.79348125,0.79348125,,,,,
2023-03-13 12:39:16.851,-0.02416992,0.00708029,-0.96313477,0.00000000,0.79348125,0.73244423,,,,,
2023-03-13 12:39:16.890,-0.02563477,0.00952177,-0.95996094,-0.06103516,0.85451827,0.79348125,,,,,
2023-03-13 12:39:16.929,-0.02319336,0.00952177,-0.96044922,-0.06103516,0.79348125,0.97659230,,,,,
2023-03-13 12:39:16.968,-0.02490234,0.00122074,-0.96313477,-0.06103516,0.85451827,0.79348125,,,,,
2023-03-13 12:39:17.007,-0.02026367,0.00146489,-0.96215820,-0.06103516,0.79348125,0.85451827,,,,,
2023-03-13 12:39:17.046,-0.02441406,0.00561541,-0.96264648,-0.06103516,0.85451827,0.85451827,,,,,
2023-03-13 12:39:17.085,-0.02294922,0.00683615,-0.96337891,-0.12207031,0.79348125,1.03762932,,,,,
2023-03-13 12:39:17.125,-0.02685547,0.00585955,-0.96484375,0.00000000,0.85451827,0.91555528,,,,,
2023-03-13 12:39:17.164,-0.02368164,0.00708029,-0.95898438,-0.12207031,0.85451827,0.79348125,,,,,
2023-03-13 12:39:17.203,-0.02416992,0.00097659,-0.96606445,-0.06103516,0.79348125,0.73244423,,,,,
2023-03-13 12:39:17.242,-0.02416992,0.00878933,-0.96630859,-0.06103516,0.91555528,0.85451827,,,,,
2023-03-13 12:39:17.281,-0.02124023,0.00024415,-0.95996094,0.00000000,0.91555528,0.85451827,,,,,
2023-03-13 12:39:17.320,-0.02465820,0.00854518,-0.95947266,-0.06103516,0.61037019,0.79348125,,,2706,87,
2023-03-13 12:39:17.359,-0.02270508,0.00683615,-0.95947266,-0.06103516,0.73244423,0.85451827,,,,,
2023-03-13 12:39:17.398,-0.02319336,0.00781274,-0.96386719,-0.12207031,0.79348125,0.85451827,,,,,
2023-03-13 12:39:17.437,-0.02294922,0.00439467,-0.96118164,-0.12207031,0.79348125,0.85451827,,,,,
2023-03-13 12:39:17.476,-0.02099609,0.00683615,-0.96093750,-0.06103516,0.85451827,0.79348125,,,,,
2023-03-13 12:39:17.515,-0.02221680,0.00170904,-0.95971680,-0.06103516,0.91555528,0.85451827,,,,,
2023-03-13 12:39:17.554,-0.02319336,0.00634785,-0.96093750,-0.06103516,0.97659230,0.73244423,,,,,
2023-03-13 12:39:17.593,-0.01684570,0.00219733,-0.96191406,-0.18310547,0.67140721,0.91555528,,,,,
2023-03-13 12:39:17.632,-0.02490234,0.00415052,-0.96826172,-0.06103516,0.85451827,0.79348125,,,,,
2023-03-13 12:39:17.671,-0.02490234,0.00268563,-0.95971680,-0.06103516,0.85451827,0.79348125,,,,,
2023-03-13 12:39:17.710,-0.02368164,0.00292978,-0.96044922,0.00000000,0.85451827,0.79348125,,,,,
2023-03-13 12:39:17.750,-0.02587891,0.00292978,-0.96240234,-0.12207031,0.79348125,0.91555528,,,,,
2023-03-13 12:39:17.789,-0.02221680,0.00756859,-0.96337891,-0.12207031,0.79348125,0.85451827,,,,,
2023-03-13 12:39:17.828,-0.02465820,0.01049837,-0.95898438,-0.12207031,0.79348125,0.85451827,,,,,
2023-03-13 12:39:17.867,-0.02539062,0.00781274,-0.95776367,-0.06103516,0.91555528,0.79348125,,,,,
2023-03-13 12:39:17.906,-0.02416992,0.00708029,-0.95703125,-0.12207031,0.97659230,0.79348125,,,,,
2023-03-13 12:39:17.945,-0.02465820,0.00756859,-0.96533203,-0.18310547,0.67140721,0.85451827,,,,,
2023-03-13 12:39:17.984,-0.02514648,0.00585955,-0.96069336,-0.06103516,0.85451827,0.85451827,,,,,
2023-03-13 12:39:18.023,-0.02026367,0.00512711,-0.96630859,-0.12207031,0.91555528,0.85451827,,,,,
2023-03-13 12:39:18.062,-0.02099609,0.00830103,-0.96411133,-0.12207031,0.91555528,0.85451827,,,,,
2023-03-13 12:39:18.101,-0.02270508,0.00439467,-0.96044922,0.00000000,0.48829615,0.79348125,,,,,
2023-03-13 12:39:18.140,-0.02465820,0.01025422,-0.96142578,-0.18310547,0.97659230,0.97659230,,,,,
2023-03-13 12:39:18.179,-0.02929688,0.00439467,-0.95996094,-0.24414062,0.79348125,1.03762932,,,,,
2023-03-13 12:39:18.218,-0.02197266,0.00659200,-0.96264648,-0.12207031,0.73244423,0.79348125,,,,,
2023-03-13 12:39:18.257,-0.02026367,0.00659200,-0.95825195,0.00000000,0.85451827,0.85451827,,,,,
2023-03-13 12:39:18.296,-0.02124023,0.00244148,-0.96240234,0.06103702,1.03762932,0.79348125,,,,,
2023-03-13 12:39:18.335,-0.02392578,0.00512711,-0.96411133,0.00000000,0.79348125,0.85451827,,,,,
2023-03-13 12:39:18.375,-0.02221680,0.01025422,-0.97070312,-0.12207031,0.73244423,0.85451827,,,,,
2023-03-13 12:39:18.414,-0.02416992,0.00415052,-0.96240234,-0.06103516,0.97659230,0.79348125,,,,,
2023-03-13 12:39:18.453,-0.02758789,0.01074252,-0.96240234,-0.06103516,0.91555528,0.91555528,,,,,
2023-03-13 12:39:18.492,-0.02661133,0.00537126,-0.96337891,-0.18310547,0.67140721,0.85451827,,,,,
2023-03-13 12:39:18.531,-0.02246094,0.00463881,-0.96069336,-0.12207031,0.91555528,0.91555528,,,,,
2023-03-13 12:39:18.570,-0.02221680,0.00634785,-0.95849609,0.00000000,0.79348125,0.91555528,,,,,
2023-03-13 12:39:18.609,-0.02392578,0.00708029,-0.96557617,-0.18310547,0.85451827,0.85451827,,,,,
2023-03-13 12:39:18.648,-0.02392578,0.00708029,-0.96313477,-0.12207031,0.67140721,0.79348125,,,,,
2023-03-13 12:39:18.687,-0.02587891,0.00341807,-0.95849609,-0.06103516,0.91555528,0.85451827,,,,,
2023-03-13 12:39:18.726,-0.02026367,0.01074252,-0.95434570,-0.06103516,1.09866634,0.85451827,,,,,
2023-03-13 12:39:18.765,-0.02563477,0.00341807,-0.96240234,0.00000000,0.61037019,0.79348125,,,,,
2023-03-13 12:39:18.804,-0.02148438,0.00610370,-0.96069336,-0.06103516,0.79348125,0.85451827,,,,,
2023-03-13 12:39:18.843,-0.02514648,0.00097659,-0.96679688,0.00000000,0.97659230,0.85451827,,,,,
2023-03-13 12:39:18.882,-0.02343750,0.00341807,-0.96118164,-0.18310547,0.61037019,0.91555528,,,,,
2023-03-13 12:39:18.921,-0.02490234,0.00683615,-0.96459961,-0.12207031,0.48829615,0.85451827,,,,,
2023-03-13 12:39:18.960,-0.02465820,0.00561541,-0.96191406,-0.06103516,1.15970336,0.91555528,,,,,
2023-03-13 12:39:19.000,-0.02026367,0.00659200,-0.96337891,-0.12207031,0.85451827,0.85451827,,,2705,0,
2023-03-13 12:39:19.039,-0.02319336,0.00732444,-0.96142578,-0.06103516,0.54933317,0.91555528,,,,,
2023-03-13 12:39:19.078,-0.02343750,0.00488296,-0.96191406,-0.12207031,0.85451827,0.85451827,,,,,
2023-03-13 12:39:19.117,-0.02441406,0.00317392,-0.96069336,-0.12207031,0.85451827,0.91555528,,,,,
2023-03-13 12:39:19.156,-0.02441406,0.00537126,-0.96337891,0.06103702,0.85451827,0.85451827,,,,,
2023-03-13 12:39:19.195,-0.02490234,0.01049837,-0.96044922,0.00000000,0.85451827,0.91555528,,,,,
2023-03-13 12:39:19.234,-0.02514648,0.00268563,-0.95825195,0.00000000,0.91555528,0.97659230,,,,,
2023-03-13 12:39:19.273,-0.02539062,0.00927763,-0.96362305,0.00000000,0.79348125,0.79348125,,,,,
2023-03-13 12:39:19.312,-0.02392578,0.00390637,-0.95874023,-0.06103516,0.73244423,0.91555528,,,,,
2023-03-13 12:39:19.351,-0.02075195,0.00708029,-0.95996094,0.00000000,0.85451827,0.85451827,,,,,
2023-03-13 12:39:19.390,-0.02148438,0.00366222,-0.96777344,-0.06103516,0.91555528,0.91555528,,,,,
2023-03-13 12:39:19.429,-0.01855469,0.00512711,-0.95947266,0.00000000,0.73244423,0.73244423,,,,,
2023-03-13 12:39:19.468,-0.01928711,0.00756859,-0.95971680,0.00000000,0.85451827,0.85451827,,,,,
2023-03-13 12:39:19.507,-0.02148438,0.00268563,-0.95874023,0.00000000,0.79348125,0.85451827,,,,,
2023-03-13 12:39:19.546,-0.02441406,0.00390637,-0.95898438,-0.06103516,0.91555528,0.91555528,,,,,
2023-03-13 12:39:19.585,-0.02661133,0.00659200,-0.96044922,0.00000000,0.61037019,0.85451827,,,,,
2023-03-13 12:39:19.625,-0.02246094,0.00561541,-0.96118164,0.00000000,0.73244423,0.85451827,,,,,
2023-03-13 12:39:19.664,-0.02612305,0.00341807,-0.95825195,0.00000000,0.91555528,0.91555528,,,,,
2023-03-13 12:39:19.703,-0.02124023,0.00708029,-0.96142578,-0.06103516,0.67140721,0.85451827,,,,,
2023-03-13 12:39:19.742,-0.01953125,0.00732444,-0.96093750,0.00000000,0.79348125,0.85451827,,,,,
2023-03-13 12:39:19.781,-0.02124023,0.01147496,-0.96679688,-0.06103516,0.73244423,0.91555528,,,,,
2023-03-13 12:39:19.820,-0.02319336,0.00659200,-0.96337891,-0.12207031,0.73244423,0.97659230,,,,,
2023-03-13 12:39:19.859,-0.02514648,0.00830103,-0.96264648,-0.12207031,0.79348125,0.79348125,,,,,
2023-03-13 12:39:19.898,-0.02465820,0.00854518,-0.95874023,-0.12207031,0.85451827,0.73244423,,,,,
2023-03-13 12:39:19.937,-0.02343750,0.00683615,-0.96435547,-0.12207031,0.91555528,0.73244423,,,,,
2023-03-13 12:39:19.976,-0.02221680,0.00488296,-0.96215820,0.00000000,0.79348125,0.79348125,,,,,
2023-03-13 12:39:20.015,-0.02392578,0.00244148,-0.96386719,0.00000000,0.97659230,0.91555528,,,,,
2023-03-13 12:39:20.054,-0.02539062,0.00292978,-0.96166992,-0.06103516,0.85451827,0.91555528,,,,,
2023-03-13 12:39:20.093,-0.02441406,0.00219733,-0.95825195,-0.06103516,0.91555528,0.91555528,,,,,
2023-03-13 12:39:20.132,-0.02636719,0.00439467,-0.96044922,-0.12207031,0.73244423,0.79348125,,,,,
2023-03-13 12:39:20.171,-0.02343750,0.00610370,-0.96362305,0.00000000,0.85451827,0.91555528,,,,,
2023-03-13 12:39:20.210,-0.02319336,0.00927763,-0.96191406,0.00000000,0.73244423,0.79348125,,,,,
2023-03-13 12:39:20.250,-0.02465820,0.00805689,-0.96069336,-0.24414062,0.73244423,0.85451827,,,,,
2023-03-13 12:39:20.289,-0.02294922,0.01123081,-0.95678711,-0.06103516,0.79348125,0.85451827,,,,,
2023-03-13 12:39:20.328,-0.02148438,0.00830103,-0.96240234,-0.12207031,0.79348125,0.85451827,,,,,
2023-03-13 12:39:20.367,-0.02124023,0.00585955,-0.95971680,-0.12207031,0.73244423,0.85451827,,,,,
2023-03-13 12:39:20.406,-0.02416992,0.00341807,-0.95947266,-0.18310547,0.91555528,0.97659230,,,,,
2023-03-13 12:39:20.445,-0.02124023,0.01074252,-0.96142578,-0.06103516,0.79348125,0.79348125,,,,,
2023-03-13 12:39:20.484,-0.02246094,0.00341807,-0.95605469,-0.18310547,0.73244423,0.91555528,,,,,
2023-03-13 12:39:20.523,-0.02587891,0.00561541,-0.95947266,0.06103702,0.79348125,0.85451827,,,,,
2023-03-13 12:39:20.562,-0.02758789,0.00561541,-0.95947266,-0.06103516,0.97659230,0.97659230,,,,,
2023-03-13 12:39:20.601,-0.02172852,0.00683615,-0.96264648,0.00000000,0.85451827,0.91555528,,,,,
2023-03-13 12:39:20.640,-0.02172852,0.00585955,-0.96313477,-0.12207031,0.61037019,0.85451827,,,2710,0,
2023-03-13 12:39:20.679,-0.02026367,0.00708029,-0.96215820,0.06103702,0.79348125,0.79348125,,,,,
2023-03-13 12:39:20.718,-0.02490234,0.00610370,-0.96337891,0.12207404,0.97659230,0.79348125,,,,,
2023-03-13 12:39:20.757,-0.02563477,0.00341807,-0.96093750,-0.12207031,0.73244423,0.91555528,,,,,
2023-03-13 12:39:20.796,-0.02636719,0.01220740,-0.96459961,-0.06103516,0.91555528,0.73244423,,,,,
2023-03-13 12:39:20.835,-0.02612305,0.00146489,-0.96606445,-0.24414062,0.73244423,0.91555528,,,,,
2023-03-13 12:39:20.875,-0.02368164,0.00708029,-0.95996094,-0.06103516,0.85451827,0.85451827,,,,,
2023-03-13 12:39:20.914,-0.02294922,0.00097659,-0.96850586,-0.12207031,0.85451827,0.91555528,,,,,
2023-03-13 12:39:20.953,-0.02197266,0.00610370,-0.96215820,0.00000000,0.91555528,0.85451827,,,,,
2023-03-13 12:39:20.992,-0.02465820,0.00756859,-0.96459961,-0.12207031,0.85451827,0.91555528,,,,,
2023-03-13 12:39:21.031,-0.02416992,0.00463881,-0.95971680,-0.06103516,0.79348125,0.85451827,,,,,
2023-03-13 12:39:21.070,-0.02294922,0.00878933,-0.95947266,-0.12207031,0.91555528,0.85451827,,,,,
2023-03-13 12:39:21.109,-0.02929688,0.00585955,-0.96801758,-0.06103516,0.79348125,0.91555528,,,,,
2023-03-13 12:39:21.148,-0.02050781,0.00390637,-0.96191406,-0.12207031,0.79348125,0.85451827,,,,,
2023-03-13 12:39:21.187,-0.02148438,0.01391644,-0.96679688,-0.12207031,0.97659230,0.79348125,,,,,
2023-03-13 12:39:21.226,-0.02099609,0.00610370,-0.96728516,-0.12207031,0.79348125,0.85451827,,,,,
2023-03-13 12:39:21.265,-0.02416992,0.00488296,-0.95825195,-0.12207031,0.79348125,0.79348125,,,,,
2023-03-13 12:39:21.304,-0.02270508,0.00463881,-0.95996094,-0.06103516,0.73244423,0.79348125,,,,,
2023-03-13 12:39:21.343,-0.02343750,0.00585955,-0.96508789,-0.12207031,0.85451827,0.85451827,,,,,
2023-03-13 12:39:21.382,-0.02368164,0.00488296,-0.95971680,0.00000000,0.67140721,0.85451827,,,,,
2023-03-13 12:39:21.421,-0.02124023,0.00830103,-0.96166992,-0.12207031,1.03762932,0.85451827,,,,,
2023-03-13 12:39:21.460,-0.02050781,0.00585955,-0.96411133,-0.06103516,0.79348125,0.85451827,,,,,
2023-03-13 12:39:21.500,-0.02124023,0.00585955,-0.96704102,-0.06103516,0.79348125,0.85451827,,,,,
2023-03-13 12:39:21.539,-0.02124023,0.01147496,-0.96337891,-0.06103516,0.97659230,0.79348125,,,,,
2023-03-13 12:39:21.578,-0.01904297,0.00659200,-0.95825195,-0.12207031,1.03762932,0.85451827,,,,,
2023-03-13 12:39:21.617,-0.02661133,0.00585955,-0.96044922,-0.06103516,0.85451827,0.85451827,,,,,
2023-03-13 12:39:21.656,-0.02319336,0.00610370,-0.96166992,-0.12207031,0.79348125,0.91555528,,,,,
2023-03-13 12:39:21.695,-0.02465820,0.00244148,-0.95922852,0.00000000,0.91555528,0.79348125,,,,,
2023-03-13 12:39:21.734,-0.01928711,0.00732444,-0.96240234,0.06103702,0.79348125,0.85451827,,,,,
2023-03-13 12:39:21.773,-0.02075195,0.00805689,-0.95654297,-0.12207031,0.85451827,0.85451827,,,,,
2023-03-13 12:39:21.812,-0.02490234,0.00244148,-0.96069336,-0.18310547,0.85451827,0.85451827,,,,,
2023-03-13 12:39:21.851,-0.02294922,0.00756859,-0.95703125,-0.12207031,0.73244423,0.79348125,,,,,
2023-03-13 12:39:21.890,-0.01928711,-0.00024414,-0.96337891,-0.18310547,0.73244423,0.85451827,,,,,
2023-03-13 12:39:21.929,-0.02441406,0.01098666,-0.95996094,0.00000000,0.91555528,0.91555528,,,,,
2023-03-13 12:39:21.968,-0.01977539,0.00366222,-0.95996094,-0.06103516,0.73244423,0.79348125,,,,,
2023-03-13 12:39:22.007,-0.02563477,0.00341807,-0.96411133,-0.06103516,0.67140721,0.85451827,,,,,
2023-03-13 12:39:22.046,-0.02050781,0.00000000,-0.96728516,-0.12207031,0.97659230,0.91555528,,,,,
2023-03-13 12:39:22.085,-0.02026367,0.00927763,-0.96386719,-0.06103516,0.79348125,0.85451827,,,,,
2023-03-13 12:39:22.125,-0.01928711,0.00952177,-0.96313477,0.00000000,0.85451827,0.79348125,,,,,
2023-03-13 12:39:22.164,-0.02294922,0.00537126,-0.96093750,-0.12207031,0.85451827,0.79348125,,,,,
2023-03-13 12:39:22.203,-0.02636719,0.00415052,-0.95874023,-0.06103516,0.79348125,0.85451827,,,,,
2023-03-13 12:39:22.242,-0.02246094,0.00708029,-0.96386719,-0.06103516,0.79348125,0.79348125,,,,,
2023-03-13 12:39:22.281,-0.02294922,0.00170904,-0.96313477,-0.06103516,0.79348125,0.79348125,,,,,
2023-03-13 12:39:22.320,-0.03027344,0.00756859,-0.95678711,0.00000000,0.91555528,0.85451827,,,2703,0,
2023-03-13 12:39:22.359,-0.02734375,-0.00463867,-0.96166992,-0.06103516,0.67140721,0.85451827,,,,,
2023-03-13 12:39:22.398,-0.02783203,0.00634785,-0.95092773,-0.06103516,0.79348125,0.85451827,,,,,
2023-03-13 12:39:22.437,-0.02246094,0.01074252,-0.96240234,-0.12207031,0.73244423,0.85451827,,,,,
2023-03-13 12:39:22.476,-0.02026367,0.00830103,-0.96728516,-0.06103516,0.85451827,0.85451827,,,,,
2023-03-13 12:39:22.515,-0.01977539,0.00830103,-0.96240234,0.06103702,0.91555528,0.73244423,,,,,
2023-03-13 12:39:22.554,-0.02539062,0.00952177,-0.96142578,0.00000000,0.73244423,0.79348125,,,,,
2023-03-13 12:39:22.593,-0.01928711,0.00048830,-0.96484375,0.00000000,0.91555528,0.73244423,,,,,
2023-03-13 12:39:22.632,-0.02148438,0.00830103,-0.95996094,-0.06103516,0.91555528,0.97659230,,,,,
2023-03-13 12:39:22.671,-0.02612305,0.00195318,-0.96533203,0.00000000,0.91555528,0.85451827,,,,,
2023-03-13 12:39:22.710,-0.02465820,0.00781274,-0.95825195,0.00000000,0.91555528,0.79348125,,,,,
2023-03-13 12:39:22.750,-0.02465820,0.00976592,-0.96728516,0.00000000,0.85451827,0.91555528,,,,,
2023-03-13 12:39:22.789,-0.02929688,0.00024415,-0.95922852,-0.06103516,0.67140721,0.91555528,,,,,
2023-03-13 12:39:22.828,-0.02026367,0.00732444,-0.96118164,-0.06103516,0.73244423,0.91555528,,,,,
2023-03-13 12:39:22.867,-0.02026367,0.00732444,-0.96191406,-0.18310547,0.79348125,0.85451827,,,,,
2023-03-13 12:39:22.906,-0.02294922,0.00341807,-0.96313477,0.00000000,0.91555528,0.73244423,,,,,
2023-03-13 12:39:22.945,-0.02563477,0.00292978,-0.96533203,-0.06103516,0.67140721,0.85451827,,,,,
2023-03-13 12:39:22.984,-0.02709961,0.00878933,-0.96484375,0.00000000,0.97659230,0.67140721,,,,,
2023-03-13 12:39:23.023,-0.02441406,0.00537126,-0.96166992,0.06103702,0.97659230,0.67140721,,,,,
2023-03-13 12:39:23.062,-0.02099609,0.00292978,-0.96777344,0.06103702,0.73244423,0.67140721,,,,,
2023-03-13 12:39:23.101,-0.02587891,0.01220740,-0.96313477,0.06103702,0.97659230,0.73244423,,,,,
2023-03-13 12:39:23.140,-0.02392578,0.00659200,-0.96459961,-0.18310547,0.85451827,0.85451827,,,,,
2023-03-13 12:39:23.179,-0.02416992,0.00781274,-0.95996094,0.06103702,0.85451827,0.79348125,,,,,
2023-03-13 12:39:23.218,-0.02636719,0.00292978,-0.95898438,-0.18310547,0.79348125,0.85451827,,,,,
2023-03-13 12:39:23.257,-0.02343750,0.00585955,-0.96118164,-0.24414062,0.73244423,0.79348125,,,,,
2023-03-13 12:39:23.296,-0.02246094,0.00097659,-0.96337891,-0.06103516,0.85451827,0.73244423,,,,,
2023-03-13 12:39:23.335,-0.02221680,0.00463881,-0.95458984,-0.12207031,0.73244423,0.91555528,,,,,
2023-03-13 12:39:23.375,-0.02465820,0.00366222,-0.95947266,-0.06103516,0.97659230,0.85451827,,,,,
2023-03-13 12:39:23.414,-0.02416992,0.00976592,-0.96240234,-0.06103516,0.67140721,0.85451827,,,,,
2023-03-13 12:39:23.453,-0.02197266,0.00439467,-0.96362305,-0.06103516,0.73244423,0.79348125,,,,,
2023-03-13 12:39:23.492,-0.02246094,0.00512711,-0.96191406,-0.18310547,0.97659230,0.85451827,,,,,
2023-03-13 12:39:23.531,-0.02587891,0.00781274,-0.96850586,-0.12207031,0.85451827,0.85451827,,,,,
2023-03-13 12:39:23.570,-0.02026367,0.00390637,-0.95556641,0.06103702,0.67140721,0.79348125,,,,,
2023-03-13 12:39:23.609,-0.02099609,0.01098666,-0.96044922,-0.12207031,0.85451827,0.85451827,,,,,
2023-03-13 12:39:23.648,-0.02246094,0.00341807,-0.96850586,-0.06103516,0.97659230,0.85451827,,,,,
2023-03-13 12:39:23.687,-0.02465820,0.00292978,-0.96484375,0.00000000,0.67140721,0.79348125,,,,,
2023-03-13 12:39:23.726,-0.02392578,0.00756859,-0.96606445,-0.06103516,0.79348125,0.85451827,,,,,
2023-03-13 12:39:23.765,-0.02807617,0.00341807,-0.96118164,-0.12207031,1.03762932,0.79348125,,,,,
2023-03-13 12:39:23.804,-0.02539062,0.00878933,-0.96606445,-0.12207031,0.91555528,0.97659230,,,,,
2023-03-13 12:39:23.843,-0.02075195,0.00244148,-0.95776367,0.00000000,0.79348125,0.91555528,,,,,
2023-03-13 12:39:23.882,-0.02587891,0.00708029,-0.96386719,-0.06103516,0.97659230,0.85451827,,,,,
2023-03-13 12:39:23.921,-0.02026367,-0.00463867,-0.96508789,-0.12207031,0.73244423,0.85451827,,,,,
2023-03-13 12:39:23.960,-0.02050781,0.00732444,-0.96142578,-0.06103516,0.67140721,0.91555528,,,,,
2023-03-13 12:39:24.000,-0.02124023,0.00390637,-0.96142578,-0.06103516,0.79348125,0.85451827,,,2709,0,
2023-03-13 12:39:24.039,-0.02587891,0.00537126,-0.95898438,0.00000000,0.97659230,0.79348125,,,,,
2023-03-13 12:39:24.078,-0.02636719,0.00830103,-0.96752930,-0.18310547,0.67140721,0.85451827,,,,,
2023-03-13 12:39:24.117,-0.01855469,0.00830103,-0.96313477,0.00000000,0.79348125,0.85451827,,,,,
2023-03-13 12:39:24.156,-0.02319336,0.00463881,-0.95971680,-0.12207031,0.97659230,0.97659230,,,,,
2023-03-13 12:39:24.195,-0.01928711,0.00439467,-0.96606445,-0.06103516,0.85451827,0.97659230,,,,,
2023-03-13 12:39:24.234,-0.02465820,0.00659200,-0.95776367,-0.12207031,0.85451827,0.91555528,,,,,
2023-03-13 12:39:24.273,-0.02587891,0.00390637,-0.96337891,-0.06103516,0.67140721,0.79348125,,,,,
2023-03-13 12:39:24.312,-0.02294922,0.00341807,-0.96264648,0.06103702,1.03762932,0.85451827,,,,,
2023-03-13 12:39:24.351,-0.02319336,0.00830103,-0.96069336,-0.06103516,0.73244423,0.91555528,,,,,
2023-03-13 12:39:24.390,-0.02124023,0.00341807,-0.96118164,-0.12207031,0.79348125,0.85451827,,,,,
2023-03-13 12:39:24.429,-0.02368164,0.01049837,-0.95922852,-0.12207031,0.85451827,0.91555528,,,,,
2023-03-13 12:39:24.468,-0.02661133,0.00537126,-0.95971680,0.00000000,0.79348125,0.85451827,,,,,
2023-03-13 12:39:24.507,-0.02246094,0.00537126,-0.96557617,-0.06103516,0.85451827,0.79348125,,,,,
2023-03-13 12:39:24.546,-0.02075195,0.00878933,-0.96606445,-0.18310547,0.79348125,0.85451827,,,,,
2023-03-13 12:39:24.585,-0.02343750,0.00439467,-0.96191406,-0.12207031,0.91555528,0.79348125,,,,,
2023-03-13 12:39:24.625,-0.02514648,0.00439467,-0.96191406,-0.06103516,0.73244423,1.03762932,,,,,
2023-03-13 12:39:24.664,-0.02197266,0.00756859,-0.96362305,-0.12207031,0.79348125,0.85451827,,,,,
2023-03-13 12:39:24.703,-0.02246094,0.00122074,-0.96191406,-0.12207031,0.91555528,0.97659230,,,,,
2023-03-13 12:39:24.742,-0.02368164,0.00830103,-0.96435547,-0.06103516,0.73244423,0.73244423,,,,,
2023-03-13 12:39:24.781,-0.02294922,0.00952177,-0.96191406,-0.06103516,0.79348125,0.85451827,,,,,
2023-03-13 12:39:24.820,-0.02441406,0.00634785,-0.96362305,-0.12207031,0.85451827,0.91555528,,,,,
2023-03-13 12:39:24.859,-0.02587891,0.00927763,-0.96459961,-0.12207031,0.91555528,0.67140721,,,,,
2023-03-13 12:39:24.898,-0.02636719,0.00585955,-0.96337891,0.00000000,0.85451827,0.85451827,,,,,
2023-03-13 12:39:24.937,-0.02197266,0.00659200,-0.96264648,-0.12207031,0.79348125,0.85451827,,,,,
2023-03-13 12:39:24.976,-0.02221680,0.00488296,-0.95996094,0.00000000,0.85451827,0.91555528,,,,,
2023-03-13 12:39:25.015,-0.02465820,0.00634785,-0.96362305,-0.12207031,0.85451827,0.97659230,,,,,
2023-03-13 12:39:25.054,-0.01928711,0.00585955,-0.96337891,-0.18310547,0.91555528,0.91555528,,,,,
2023-03-13 12:39:25.093,-0.02270508,0.00756859,-0.96337891,0.00000000,0.85451827,0.91555528,,,,,
2023-03-13 12:39:25.132,-0.02099609,0.00561541,-0.95971680,0.00000000,0.79348125,0.91555528,,,,,
2023-03-13 12:39:25.171,-0.02392578,0.00366222,-0.96484375,-0.12207031,0.91555528,0.91555528,,,,,
2023-03-13 12:39:25.210,-0.02416992,0.00878933,-0.95996094,-0.18310547,0.79348125,0.91555528,,,,,
2023-03-13 12:39:25.250,-0.02148438,0.00268563,-0.95874023,-0.06103516,0.79348125,0.79348125,,,,,
2023-03-13 12:39:25.289,-0.02172852,0.00732444,-0.96435547,-0.12207031,0.79348125,0.79348125,,,,,
2023-03-13 12:39:25.328,-0.02319336,0.00390637,-0.96679688,-0.12207031,0.85451827,0.91555528,,,,,
2023-03-13 12:39:25.367,-0.02319336,0.00683615,-0.95996094,0.00000000,0.67140721,0.79348125,,,,,
2023-03-13 12:39:25.406,-0.02270508,0.00317392,-0.96313477,-0.18310547,0.97659230,0.79348125,,,,,
2023-03-13 12:39:25.445,-0.02368164,0.00610370,-0.96362305,-0.12207031,0.91555528,0.85451827,,,,,
2023-03-13 12:39:25.484,-0.02124023,0.00659200,-0.96459961,-0.06103516,0.85451827,0.91555528,,,,,
2023-03-13 12:39:25.523,-0.02416992,0.00830103,-0.96337891,-0.06103516,0.85451827,0.73244423,,,,,
2023-03-13 12:39:25.562,-0.02294922,0.00585955,-0.96337891,0.00000000,0.85451827,0.91555528,,,,,
2023-03-13 12:39:25.601,-0.02368164,0.01001007,-0.96069336,-0.12207031,0.79348125,0.85451827,,,,,
2023-03-13 12:39:25.640,-0.02319336,0.00585955,-0.96386719,-0.12207031,0.73244423,0.97659230,,,2705,0,
2023-03-13 12:39:25.679,-0.02294922,0.00708029,-0.96215820,0.00000000,0.79348125,0.79348125,,,,,
2023-03-13 12:39:25.718,-0.02294922,0.00170904,-0.96533203,0.00000000,0.73244423,0.91555528,,,,,
2023-03-13 12:39:25.757,-0.02124023,0.00732444,-0.96240234,-0.06103516,0.91555528,0.85451827,,,,,
2023-03-13 12:39:25.796,-0.01782227,0.01001007,-0.96386719,0.00000000,0.79348125,0.85451827,,,,,
2023-03-13 12:39:25.835,-0.01928711,0.00585955,-0.96264648,-0.06103516,0.85451827,0.85451827,,,,,
2023-03-13 12:39:25.875,-0.02050781,0.01025422,-0.96044922,-0.12207031,0.67140721,0.85451827,,,,,
2023-03-13 12:39:25.914,-0.02075195,0.00292978,-0.96240234,-0.06103516,0.73244423,0.97659230,,,,,
2023-03-13 12:39:25.953,-0.02368164,0.00341807,-0.96240234,-0.06103516,0.79348125,0.91555528,,,,,
2023-03-13 12:39:25.992,-0.02636719,0.00854518,-0.95776367,0.00000000,0.85451827,0.79348125,,,,,
2023-03-13 12:39:26.031,-0.02343750,0.00415052,-0.96166992,-0.12207031,0.73244423,0.85451827,,,,,
2023-03-13 12:39:26.070,-0.02099609,0.00537126,-0.96240234,-0.06103516,0.85451827,0.79348125,,,,,
2023-03-13 12:39:26.109,-0.02514648,0.00439467,-0.96240234,0.00000000,0.91555528,0.79348125,,,,,
2023-03-13 12:39:26.148,-0.02734375,0.00463881,-0.95874023,0.00000000,0.91555528,0.85451827,,,,,
2023-03-13 12:39:26.187,-0.02197266,0.00830103,-0.96508789,0.00000000,0.91555528,0.79348125,,,,,
2023-03-13 12:39:26.226,-0.02416992,0.00683615,-0.96118164,-0.06103516,0.85451827,0.67140721,,,,,
2023-03-13 12:39:26.265,-0.02294922,0.01025422,-0.96118164,0.06103702,0.79348125,0.85451827,,,,,
2023-03-13 12:39:26.304,-0.02514648,0.00268563,-0.96386719,0.00000000,0.79348125,0.85451827,,,,,
2023-03-13 12:39:26.343,-0.02392578,0.00146489,-0.96264648,-0.12207031,0.85451827,0.85451827,,,,,
2023-03-13 12:39:26.382,-0.01928711,0.00927763,-0.95849609,-0.12207031,0.79348125,0.85451827,,,,,
2023-03-13 12:39:26.421,-0.02465820,0.00561541,-0.96337891,-0.06103516,0.85451827,0.85451827,,,,,
2023-03-13 12:39:26.460,-0.02539062,0.00878933,-0.95947266,0.00000000,0.85451827,0.85451827,,,,,
2023-03-13 12:39:26.500,-0.02294922,0.00878933,-0.96240234,-0.12207031,0.97659230,0.85451827,21.3,18.0,,,
2023-03-13 12:39:26.539,-0.02026367,0.00366222,-0.95654297,-0.06103516,0.73244423,0.91555528,,,,,
2023-03-13 12:39:26.578,-0.02392578,0.00854518,-0.96093750,-0.12207031,0.79348125,0.79348125,,,,,
2023-03-13 12:39:26.617,-0.02294922,0.00488296,-0.96313477,0.00000000,0.91555528,0.97659230,,,,,
2023-03-13 12:39:26.656,-0.02124023,-0.00292969,-0.96362305,-0.12207031,0.67140721,0.85451827,,,,,
2023-03-13 12:39:26.695,-0.02758789,0.00756859,-0.96142578,-0.12207031,0.85451827,0.85451827,,,,,
2023-03-13 12:39:26.734,-0.02490234,0.00903348,-0.96386719,-0.06103516,0.85451827,0.85451827,,,,,
2023-03-13 12:39:26.773,-0.02416992,0.00708029,-0.95776367,-0.06103516,0.91555528,0.85451827,,,,,
2023-03-13 12:39:26.812,-0.02319336,0.00830103,-0.96899414,-0.06103516,0.79348125,0.91555528,,,,,
2023-03-13 12:39:26.851,-0.02661133,0.00854518,-0.96435547,-0.06103516,1.03762932,0.79348125,,,,,
2023-03-13 12:39:26.890,-0.02441406,0.00830103,-0.96850586,-0.06103516,0.85451827,0.91555528,,,,,
2023-03-13 12:39:26.929,-0.02294922,0.00341807,-0.97070312,-0.12207031,0.61037019,0.85451827,,,,,
2023-03-13 12:39:26.968,-0.02612305,0.00390637,-0.96313477,-0.18310547,0.85451827,0.91555528,,,,,
2023-03-13 12:39:27.007,-0.02368164,0.00585955,-0.96118164,-0.06103516,0.79348125,0.97659230,,,,,
2023-03-13 12:39:27.046,-0.02636719,0.01001007,-0.96459961,-0.06103516,0.91555528,0.91555528,,,,,
2023-03-13 12:39:27.085,-0.02148438,0.00463881,-0.96044922,-0.06103516,0.79348125,0.79348125,,,,,
2023-03-13 12:39:27.125,-0.02124023,0.00805689,-0.96508789,0.00000000,0.73244423,0.91555528,,,,,
2023-03-13 12:39:27.164,-0.01708984,0.00390637,-0.96557617,-0.06103516,1.03762932,1.03762932,,,,,
2023-03-13 12:39:27.203,-0.01855469,0.00903348,-0.96240234,-0.06103516,0.79348125,0.85451827,,,,,
2023-03-13 12:39:27.242,-0.02343750,0.00390637,-0.95507812,-0.18310547,0.79348125,0.79348125,,,,,
2023-03-13 12:39:27.281,-0.01562500,0.00952177,-0.96484375,-0.06103516,0.79348125,0.85451827,,,,,
2023-03-13 12:39:27.320,-0.02294922,0.00268563,-0.96655273,0.00000000,1.22074038,0.79348125,,,2709,0,
2023-03-13 12:39:27.359,-0.02270508,0.00561541,-0.96118164,-0.12207031,0.67140721,0.85451827,,,,,
2023-03-13 12:39:27.398,-0.02416992,0.00903348,-0.96240234,-0.06103516,0.67140721,0.79348125,,,,,
2023-03-13 12:39:27.437,-0.02490234,0.00878933,-0.96166992,0.00000000,0.85451827,0.85451827,,,,,
2023-03-13 12:39:27.476,-0.02246094,0.00781274,-0.95898438,-0.12207031,0.97659230,0.79348125,,,,,
2023-03-13 12:39:27.515,-0.01904297,0.00268563,-0.96215820,-0.12207031,0.73244423,0.85451827,,,,,
2023-03-13 12:39:27.554,-0.02075195,0.00366222,-0.96801758,0.00000000,0.61037019,0.85451827,,,,,
2023-03-13 12:39:27.593,-0.02270508,0.00195318,-0.96606445,-0.06103516,1.03762932,0.91555528,,,,,
2023-03-13 12:39:27.632,-0.02514648,0.00952177,-0.96337891,0.06103702,0.73244423,0.91555528,,,,,
2023-03-13 12:39:27.671,-0.02246094,0.00659200,-0.96093750,-0.18310547,0.73244423,0.85451827,,,,,
2023-03-13 12:39:27.710,-0.02490234,0.00341807,-0.95800781,-0.12207031,0.85451827,0.85451827,,,,,
2023-03-13 12:39:27.750,-0.02197266,0.00366222,-0.96044922,-0.06103516,0.79348125,0.91555528,,,,,
2023-03-13 12:39:27.789,-0.02319336,0.00463881,-0.95898438,-0.06103516,0.85451827,0.79348125,,,,,
2023-03-13 12:39:27.828,-0.02685547,0.00341807,-0.96435547,-0.12207031,0.79348125,0.79348125,,,,,
2023-03-13 12:39:27.867,-0.02661133,0.00366222,-0.95678711,-0.06103516,0.85451827,0.91555528,,,,,
2023-03-13 12:39:27.906,-0.02661133,0.01171911,-0.96362305,-0.12207031,0.85451827,0.91555528,,,,,
2023-03-13 12:39:27.945,-0.02197266,0.01025422,-0.96752930,0.00000000,0.79348125,0.79348125,,,,,
2023-03-13 12:39:27.984,-0.02075195,0.00488296,-0.95971680,0.00000000,0.91555528,0.91555528,,,,,
2023-03-13 12:39:28.023,-0.02587891,0.01293985,-0.95922852,-0.06103516,0.73244423,0.79348125,,,,,
2023-03-13 12:39:28.062,-0.02880859,0.00488296,-0.96118164,0.00000000,0.85451827,0.91555528,,,,,
2023-03-13 12:39:28.101,-0.02563477,0.00585955,-0.96240234,-0.12207031,0.73244423,0.91555528,,,,,
2023-03-13 12:39:28.140,-0.02465820,0.00512711,-0.96459961,-0.06103516,0.85451827,0.91555528,,,,,
2023-03-13 12:39:28.179,-0.02392578,-0.00024414,-0.95703125,0.00000000,1.09866634,0.79348125,,,,,
2023-03-13 12:39:28.218,-0.02294922,0.00415052,-0.96459961,-0.18310547,0.67140721,0.97659230,,,,,
2023-03-13 12:39:28.257,-0.02465820,0.00146489,-0.96142578,-0.12207031,0.85451827,0.97659230,,,,,
2023-03-13 12:39:28.296,-0.02416992,0.00732444,-0.96459961,0.00000000,0.79348125,0.91555528,,,,,
2023-03-13 12:39:28.335,-0.02197266,0.00390637,-0.96533203,-0.06103516,0.97659230,0.79348125,,,,,
2023-03-13 12:39:28.375,-0.01928711,0.00952177,-0.96362305,0.00000000,0.91555528,0.85451827,,,,,
2023-03-13 12:39:28.414,-0.02050781,0.00683615,-0.95898438,-0.12207031,0.73244423,0.85451827,,,,,
2023-03-13 12:39:28.453,-0.02490234,0.00219733,-0.96435547,-0.06103516,0.73244423,0.97659230,,,,,
2023-03-13 12:39:28.492,-0.02709961,0.00488296,-0.95898438,-0.06103516,0.91555528,0.73244423,,,,,
2023-03-13 12:39:28.531,-0.02148438,0.00341807,-0.96093750,-0.06103516,0.85451827,0.85451827,,,,,
2023-03-13 12:39:28.570,-0.02416992,-0.00024414,-0.96118164,-0.06103516,0.79348125,0.85451827,,,,,
2023-03-13 12:39:28.609,-0.01928711,0.00683615,-0.96240234,-0.12207031,0.91555528,0.91555528,,,,,
2023-03-13 12:39:28.648,-0.02416992,0.00708029,-0.96508789,-0.12207031,0.85451827,0.91555528,,,,,
2023-03-13 12:39:28.687,-0.02465820,0.00708029,-0.96362305,0.00000000,0.85451827,0.91555528,,,,,
2023-03-13 12:39:28.726,-0.02026367,0.00805689,-0.96240234,0.00000000,0.79348125,0.91555528,,,,,
2023-03-13 12:39:28.765,-0.02465820,0.00708029,-0.95776367,0.06103702,0.85451827,0.79348125,,,,,
2023-03-13 12:39:28.804,-0.02587891,0.00903348,-0.96752930,-0.06103516,0.73244423,0.85451827,,,,,
2023-03-13 12:39:28.843,-0.02026367,0.00317392,-0.96337891,-0.18310547,0.91555528,0.97659230,,,,,
2023-03-13 12:39:28.882,-0.01904297,0.01025422,-0.96069336,-0.06103516,0.91555528,0.85451827,,,,,
2023-03-13 12:39:28.921,-0.02294922,0.01074252,-0.96215820,-0.06103516,0.85451827,0.79348125,,,,,
2023-03-13 12:39:28.960,-0.02758789,0.00512711,-0.96240234,-0.12207031,0.79348125,0.79348125,,,,,
2023-03-13 12:39:29.000,-0.02758789,0.00195318,-0.96240234,-0.12207031,0.85451827,0.85451827,,,2710,0,
2023-03-13 12:39:29.039,-0.02563477,0.00317392,-0.96191406,0.00000000,1.03762932,0.79348125,,,,,
2023-03-13 12:39:29.078,-0.02563477,0.00366222,-0.95971680,-0.06103516,0.79348125,0.91555528,,,,,
2023-03-13 12:39:29.117,-0.02246094,0.00512711,-0.96093750,-0.06103516,0.85451827,0.73244423,,,,,
2023-03-13 12:39:29.156,-0.02587891,0.01196326,-0.95996094,0.00000000,0.85451827,0.85451827,,,,,
2023-03-13 12:39:29.195,-0.02539062,0.00976592,-0.96044922,-0.12207031,0.91555528,0.85451827,,,,,
2023-03-13 12:39:29.234,-0.02587891,0.00512711,-0.95239258,-0.06103516,0.73244423,0.79348125,,,,,
2023-03-13 12:39:29.273,-0.02490234,0.00512711,-0.96313477,-0.06103516,0.73244423,0.91555528,,,,,
2023-03-13 12:39:29.312,-0.02465820,0.00463881,-0.96044922,-0.06103516,0.91555528,0.79348125,,,,,
2023-03-13 12:39:29.351,-0.02441406,0.00488296,-0.96337891,-0.12207031,0.91555528,0.73244423,,,,,
2023-03-13 12:39:29.390,-0.01928711,0.00830103,-0.96313477,-0.06103516,0.85451827,0.85451827,,,,,
2023-03-13 12:39:29.429,-0.02343750,0.00512711,-0.96240234,-0.18310547,0.85451827,0.79348125,,,,,
2023-03-13 12:39:29.468,-0.02490234,0.00415052,-0.96313477,-0.12207031,0.79348125,0.79348125,,,,,
2023-03-13 12:39:29.507,-0.02124023,0.00708029,-0.96142578,-0.18310547,0.85451827,0.85451827,,,,,
2023-03-13 12:39:29.546,-0.02856445,0.00683615,-0.96411133,-0.12207031,0.85451827,0.85451827,,,,,
2023-03-13 12:39:29.585,-0.02758789,0.00683615,-0.96752930,0.00000000,0.85451827,0.73244423,,,,,
2023-03-13 12:39:29.625,-0.02563477,0.00634785,-0.96459961,0.00000000,0.85451827,0.85451827,,,,,
2023-03-13 12:39:29.664,-0.02563477,0.00708029,-0.96337891,-0.12207031,0.91555528,0.85451827,,,,,
2023-03-13 12:39:29.703,-0.02294922,0.00537126,-0.96630859,-0.06103516,0.73244423,0.73244423,,,,,
2023-03-13 12:39:29.742,-0.02465820,0.00708029,-0.95971680,-0.06103516,0.79348125,0.85451827,,,,,
2023-03-13 12:39:29.781,-0.01660156,0.00830103,-0.96240234,-0.06103516,0.73244423,0.91555528,,,,,
2023-03-13 12:39:29.820,-0.02343750,0.00830103,-0.96118164,-0.06103516,0.85451827,0.91555528,,,,,
2023-03-13 12:39:29.859,-0.02441406,0.00170904,-0.96044922,-0.12207031,0.79348125,0.91555528,,,,,
2023-03-13 12:39:29.898,-0.02172852,0.00341807,-0.95947266,-0.12207031,0.91555528,0.91555528,,,,,
2023-03-13 12:39:29.937,-0.01928711,0.01074252,-0.96337891,-0.12207031,0.67140721,0.79348125,,,,,
2023-03-13 12:39:29.976,-0.02026367,0.01001007,-0.96215820,-0.06103516,0.67140721,0.85451827,,,,,
2023-03-13 12:39:30.015,-0.02246094,0.00219733,-0.95703125,0.00000000,0.97659230,0.79348125,,,,,
2023-03-13 12:39:30.054,-0.02441406,0.00781274,-0.96313477,0.00000000,0.79348125,0.79348125,,,,,
2023-03-13 12:39:30.093,-0.02319336,0.00708029,-0.95996094,-0.12207031,0.73244423,0.91555528,,,,,
2023-03-13 12:39:30.132,-0.02758789,0.00952177,-0.96166992,0.00000000,0.91555528,0.79348125,,,,,
2023-03-13 12:39:30.171,-0.02294922,0.00585955,-0.96166992,0.00000000,0.97659230,0.79348125,,,,,
2023-03-13 12:39:30.210,-0.02465820,0.00854518,-0.95849609,-0.06103516,0.67140721,0.97659230,,,,,
2023-03-13 12:39:30.250,-0.02514648,0.00830103,-0.96264648,0.00000000,0.97659230,0.79348125,,,,,
2023-03-13 12:39:30.289,-0.02221680,0.00830103,-0.96337891,-0.12207031,0.79348125,0.85451827,,,,,
2023-03-13 12:39:30.328,-0.02368164,0.00610370,-0.96044922,-0.06103516,0.79348125,0.73244423,,,,,
2023-03-13 12:39:30.367,-0.02294922,0.00463881,-0.95971680,0.00000000,0.79348125,0.85451827,,,,,
2023-03-13 12:39:30.406,-0.02514648,0.00708029,-0.95996094,0.06103702,0.91555528,0.91555528,,,,,
2023-03-13 12:39:30.445,-0.02758789,0.00756859,-0.96362305,-0.06103516,0.73244423,0.85451827,,,,,
2023-03-13 12:39:30.484,-0.02270508,0.00585955,-0.96118164,-0.06103516,0.73244423,0.79348125,,,,,
2023-03-13 12:39:30.523,-0.02465820,0.00732444,-0.96264648,-0.06103516,0.91555528,0.91555528,,,,,
2023-03-13 12:39:30.562,-0.02221680,0.00463881,-0.95971680,-0.06103516,0.73244423,0.91555528,,,,,
2023-03-13 12:39:30.601,-0.02221680,0.00781274,-0.96118164,0.00000000,0.91555528,0.73244423,,,,,
2023-03-13 12:39:30.640,-0.02441406,0.00732444,-0.96533203,-0.12207031,0.73244423,0.97659230,,,2706,0,
2023-03-13 12:39:30.679,-0.02148438,0.00439467,-0.96777344,0.06103702,0.85451827,0.79348125,,,,,
2023-03-13 12:39:30.718,-0.02050781,0.01123081,-0.95703125,-0.12207031,0.91555528,0.85451827,,,,,
2023-03-13 12:39:30.757,-0.02294922,0.00488296,-0.95703125,-0.12207031,0.79348125,0.73244423,,,,,
2023-03-13 12:39:30.796,-0.02612305,0.00830103,-0.96508789,-0.06103516,0.79348125,0.91555528,,,,,
2023-03-13 12:39:30.835,-0.02270508,0.00585955,-0.96166992,-0.12207031,0.79348125,0.85451827,,,,,
2023-03-13 12:39:30.875,-0.01904297,0.00585955,-0.96142578,-0.06103516,0.97659230,0.85451827,,,,,
2023-03-13 12:39:30.914,-0.02294922,0.00195318,-0.96630859,-0.12207031,0.73244423,0.85451827,,,,,
2023-03-13 12:39:30.953,-0.02490234,0.00415052,-0.96313477,-0.06103516,1.03762932,0.97659230,,,,,
2023-03-13 12:39:30.992,-0.02197266,0.00317392,-0.96264648,-0.06103516,0.97659230,0.85451827,,,,,
2023-03-13 12:39:31.031,-0.02636719,0.00976592,-0.96362305,0.00000000,0.79348125,0.85451827,,,,,
2023-03-13 12:39:31.070,-0.02416992,0.00830103,-0.96044922,-0.12207031,0.67140721,0.85451827,,,,,
2023-03-13 12:39:31.109,-0.01855469,0.00708029,-0.95947266,-0.06103516,0.85451827,0.79348125,,,,,
2023-03-13 12:39:31.148,-0.02075195,0.00463881,-0.96069336,-0.12207031,0.79348125,0.97659230,,,,,
2023-03-13 12:39:31.187,-0.01953125,0.00659200,-0.96020508,0.00000000,0.67140721,0.79348125,,,,,
2023-03-13 12:39:31.226,-0.02343750,0.00610370,-0.96118164,-0.06103516,0.79348125,0.79348125,,,,,
2023-03-13 12:39:31.265,-0.02563477,0.00732444,-0.96069336,0.00000000,0.91555528,0.85451827,,,,,
2023-03-13 12:39:31.304,-0.02514648,0.00561541,-0.95996094,-0.06103516,0.79348125,0.85451827,,,,,
2023-03-13 12:39:31.343,-0.02587891,0.01001007,-0.96484375,-0.06103516,0.73244423,0.85451827,,,,,
2023-03-13 12:39:31.382,-0.02343750,0.00512711,-0.96801758,-0.06103516,0.85451827,0.79348125,,,,,
2023-03-13 12:39:31.421,-0.01928711,0.00097659,-0.96435547,-0.12207031,0.79348125,0.91555528,,,,,
2023-03-13 12:39:31.460,-0.01977539,0.00756859,-0.95849609,0.06103702,0.85451827,0.85451827,,,,,
2023-03-13 12:39:31.500,-0.02636719,0.00830103,-0.95947266,-0.06103516,0.85451827,0.85451827,,,,,
2023-03-13 12:39:31.539,-0.02221680,0.00585955,-0.96728516,0.00000000,0.91555528,0.73244423,,,,,
2023-03-13 12:39:31.578,-0.02124023,0.00463881,-0.96240234,-0.06103516,0.73244423,0.85451827,,,,,
2023-03-13 12:39:31.617,-0.02148438,0.00927763,-0.96069336,-0.06103516,0.85451827,0.85451827,,,,,
2023-03-13 12:39:31.656,-0.02929688,0.00634785,-0.95947266,0.00000000,0.79348125,0.73244423,,,,,
2023-03-13 12:39:31.695,-0.02197266,0.00854518,-0.95629883,0.00000000,0.85451827,0.73244423,,,,,
2023-03-13 12:39:31.734,-0.02001953,0.00561541,-0.96313477,-0.12207031,0.73244423,0.85451827,,,,,
2023-03-13 12:39:31.773,-0.02392578,0.00585955,-0.96142578,-0.18310547,0.91555528,0.85451827,,,,,
