// Start Time: 00/00/   0 - 01:10:50
// Sample rate: 120.0Hz
// Scenario: 10.8
// Firmware Version: 2.6.1
Counter	Temperature	Acc_X	Acc_Y	Acc_Z	Gyr_X	Gyr_Y	Gyr_Z	Mag_X	Mag_Y	Mag_Z	
43120	27.50	-9.786858	0.380128	0.469028	0.011950	-0.011256	0.001086	1.735953	0.008111	-0.222300	
43121	27.50	-9.772263	0.380142	0.461819	-0.005272	-0.008434	-0.010430	1.734197	0.007344	-0.222556	
43122	27.50	-9.769848	0.377685	0.466674	0.005068	-0.005865	-0.002433	1.737499	0.005634	-0.220332	
43123	27.50	-9.762546	0.384955	0.461846	0.003344	-0.005850	-0.003328	1.733951	0.008617	-0.222816	
43124	27.50	-9.772249	0.382594	0.456972	0.003375	0.006587	-0.002311	1.736374	0.008700	-0.221271	
43125	27.50	-9.767405	0.380130	0.461836	0.001632	-0.003165	-0.005056	1.734752	-0.000362	-0.225290	
43126	27.50	-9.767396	0.365654	0.457020	-0.002737	-0.001437	0.003549	1.734543	0.001509	-0.224798	
43127	27.50	-9.784419	0.389812	0.466598	-0.008807	-0.005866	0.003401	1.735723	0.002346	-0.223464	
43128	27.50	-9.772276	0.382527	0.466656	-0.005296	-0.000495	-0.002541	1.735324	0.007985	-0.222470	
43129	27.50	-9.774667	0.375379	0.452134	0.001597	-0.004984	0.000119	1.735123	0.005627	-0.220754	
43130	27.50	-9.772235	0.385046	0.452126	-0.001793	-0.000452	-0.009409	1.734314	0.006586	-0.222551	
43131	27.50	-9.786809	0.387500	0.452067	-0.012173	-0.005732	-0.012240	1.735941	0.009518	-0.219929	
43132	27.50	-9.774665	0.382634	0.452121	-0.001829	-0.002271	-0.004235	1.735827	0.009391	-0.222676	
43133	27.50	-9.791623	0.399703	0.437501	-0.005285	0.000398	-0.003387	1.734476	0.008208	-0.222033	
43134	27.50	-9.781930	0.389956	0.444818	-0.001854	-0.000535	0.000985	1.736178	0.010187	-0.223393	
43135	27.50	-9.767338	0.380298	0.437626	0.006853	-0.007572	-0.011948	1.733169	0.009163	-0.223866	
43136	27.50	-9.762572	0.387306	0.471526	0.000771	-0.015553	-0.012148	1.734795	0.009537	-0.220635	
43137	27.50	-9.786850	0.384981	0.466598	0.010202	-0.012159	0.003644	1.734980	0.008332	-0.221872	
43138	27.50	-9.767392	0.380164	0.456994	0.005008	-0.005945	0.007957	1.735943	0.010041	-0.223038	
43139	27.50	-9.781967	0.375363	0.456949	0.005099	-0.007598	-0.008513	1.736017	0.009317	-0.221045	
43140	27.50	-9.772292	0.372821	0.471516	0.000770	0.002157	-0.003276	1.732484	0.006784	-0.221812	
43141	27.50	-9.767373	0.375378	0.449740	0.009319	-0.007751	0.009739	1.734547	0.010685	-0.220896	
43142	27.50	-9.757677	0.375304	0.457039	0.001550	-0.013015	0.004347	1.735219	0.008346	-0.222103	
43143	27.50	-9.781965	0.385036	0.456932	0.006808	0.006538	0.002079	1.734193	0.009395	-0.223168	
43144	27.50	-9.774695	0.370475	0.461827	0.004242	0.002158	-0.004949	1.736349	0.011286	-0.222504	
43145	27.50	-9.794102	0.389919	0.454457	-0.000068	-0.006667	-0.012047	1.734010	0.008422	-0.221320	
43146	27.50	-9.784398	0.370533	0.456949	-0.005371	-0.005911	0.007786	1.737611	0.009871	-0.221673	
43147	27.50	-9.767373	0.375378	0.449740	-0.006992	-0.012843	-0.013977	1.736101	0.008341	-0.221790	
43148	27.50	-9.755260	0.380101	0.461881	-0.005355	-0.004113	0.006070	1.736085	0.009767	-0.222531	
43149	27.50	-9.781952	0.382651	0.452094	-0.012241	-0.004936	-0.000110	1.735075	0.009391	-0.222855	
43150	27.50	-9.781966	0.380200	0.456941	-0.012285	-0.007650	0.005918	1.734371	0.008455	-0.224653	
43151	27.50	-9.767376	0.363286	0.449761	0.017955	-0.001599	0.015152	1.736193	0.010681	-0.223141	
43152	27.50	-9.762496	0.370580	0.442503	0.006700	-0.013087	0.011362	1.734195	0.007091	-0.222557	
43153	27.50	-9.755260	0.380101	0.461881	0.005087	-0.001410	-0.003248	1.736469	0.008862	-0.222009	
43154	27.50	-9.767405	0.380130	0.461836	0.003364	0.006574	-0.000581	1.733212	0.009370	-0.222867	
43155	27.50	-9.777118	0.392245	0.461779	0.003318	-0.004117	0.001893	1.733927	0.011715	-0.224172	
43156	27.50	-9.762509	0.372964	0.447341	-0.016497	0.000487	-0.008782	1.734760	0.009192	-0.221386	
43157	27.50	-9.767420	0.375260	0.466687	0.015418	0.003803	0.007381	1.733493	0.007545	-0.221610	
43158	27.50	-9.762552	0.360773	0.461889	0.000702	-0.001476	0.007068	1.735756	0.010097	-0.221558	
43159	27.50	-9.755236	0.370495	0.452214	0.013669	-0.007730	0.005479	1.734417	0.009937	-0.223896	
43160	27.50	-9.755235	0.372913	0.452210	-0.000149	-0.005882	0.002672	1.736489	0.008327	-0.221388	
43161	27.50	-9.764963	0.380158	0.457003	-0.012180	-0.001309	-0.008730	1.734574	0.009134	-0.222893	
43162	27.50	-9.764922	0.380259	0.442477	-0.008766	-0.005812	-0.002664	1.734936	0.010045	-0.223360	
43163	27.50	-9.767399	0.377729	0.459420	0.005064	-0.005871	-0.001568	1.736143	0.009445	-0.221035	
43164	27.50	-9.767351	0.382683	0.442463	0.004975	-0.021932	0.006034	1.733375	0.008176	-0.221616	
43165	27.50	-9.772216	0.380260	0.444871	-0.005351	-0.015625	-0.000125	1.733892	0.010461	-0.221692	
43166	27.50	-9.781952	0.382651	0.452094	0.006763	-0.007692	0.002774	1.733702	0.008615	-0.222835	
43167	27.50	-9.767381	0.370524	0.452170	0.012030	-0.004063	-0.008358	1.734325	0.009643	-0.223033	
43168	27.56	-9.772553	0.380065	0.456867	-0.001912	-0.020056	-0.004494	1.736114	0.009005	-0.222454	
43169	27.56	-9.767701	0.380036	0.459306	0.006755	-0.005008	0.000161	1.734270	0.008324	-0.221844	
43170	27.56	-9.772537	0.389771	0.452007	-0.003707	-0.011281	0.011171	1.735427	0.011362	-0.221621	
43171	27.56	-9.772560	0.380048	0.459288	-0.007122	0.006504	0.012191	1.734377	0.008601	-0.222333	
43172	27.56	-9.772607	0.379931	0.476235	0.003305	-0.005867	-0.002505	1.734531	0.010487	-0.222064	
43173	27.56	-9.767713	0.363092	0.461757	0.011954	-0.005012	-0.001487	1.735887	0.009107	-0.221972	
43174	27.56	-9.767730	0.372714	0.469003	-0.000163	-0.009408	-0.002608	1.735685	0.011497	-0.224465	
43175	27.56	-9.767703	0.372781	0.459319	-0.000208	-0.013010	0.003411	1.735990	0.010028	-0.222707	
43176	27.56	-9.777389	0.384963	0.449577	-0.001810	0.015503	-0.004063	1.733968	0.009661	-0.223478	
43177	27.56	-9.782295	0.382440	0.466511	-0.005315	-0.008457	-0.008740	1.735493	0.012070	-0.223231	
43178	27.56	-9.774971	0.370431	0.452033	-0.008820	0.001237	0.004305	1.734171	0.010611	-0.224828	
43179	27.56	-9.777414	0.370404	0.456866	-0.001182	-0.028209	0.014472	1.735078	0.009043	-0.223525	
43180	27.56	-9.762822	0.360745	0.449674	0.008540	0.004802	-0.004026	1.737079	0.007898	-0.222886	
43181	27.56	-9.762846	0.370351	0.459341	-0.009695	-0.009398	0.000696	1.734202	0.008657	-0.223590	
43182	27.56	-9.777426	0.375207	0.461699	-0.003587	-0.007579	-0.007836	1.735763	0.011152	-0.222469	
43183	27.56	-9.767681	0.380086	0.452042	-0.000161	-0.004093	0.000056	1.733139	0.008326	-0.222176	
43184	27.56	-9.772556	0.370392	0.456884	-0.005407	-0.007692	0.007718	1.735879	0.009371	-0.222220	
43185	27.56	-9.765274	0.375194	0.459323	-0.001853	-0.004922	-0.006912	1.736108	0.008373	-0.222457	
43186	27.56	-9.767704	0.370363	0.459323	0.001497	-0.009507	0.009543	1.735313	0.011235	-0.224368	
43187	27.56	-9.762837	0.380041	0.456902	-0.001871	-0.007601	-0.005212	1.735127	0.008860	-0.222277	
43188	27.56	-9.762835	0.384877	0.456894	-0.003595	-0.007588	-0.006106	1.734018	0.008069	-0.221864	
43189	27.56	-9.767684	0.370413	0.452060	-0.008766	0.000424	-0.005232	1.735186	0.009447	-0.224013	
43190	27.56	-9.765279	0.380013	0.461736	-0.005346	-0.000525	0.000877	1.734611	0.008108	-0.222567	
43191	27.56	-9.762823	0.380074	0.452060	-0.010473	0.004890	-0.006938	1.735226	0.009401	-0.223014	
43192	27.56	-9.777373	0.372922	0.442335	-0.000200	-0.005919	0.006097	1.735524	0.010116	-0.221993	
43193	27.56	-9.779815	0.375313	0.447164	0.003317	-0.012055	-0.006907	1.733625	0.008600	-0.222513	
43194	27.56	-9.774990	0.375217	0.459287	0.005027	-0.002343	0.001031	1.736412	0.009095	-0.224299	
43195	27.56	-9.767681	0.382505	0.452038	-0.007151	-0.014790	0.006739	1.733951	0.006994	-0.223243	
43196	27.56	-9.767679	0.389759	0.452025	-0.003615	-0.014701	-0.006189	1.735993	0.010792	-0.222827	
43197	27.50	-9.777096	0.375385	0.452125	-0.006194	-0.016479	-0.004479	1.735329	0.007979	-0.222346	
43198	27.50	-9.786805	0.375425	0.449668	0.008432	-0.014865	0.009644	1.735055	0.010437	-0.223598	
43199	27.50	-9.772247	0.389849	0.456959	0.023163	-0.008679	0.008231	1.735551	0.010314	-0.223563	
43200	27.50	-9.772242	0.385029	0.454547	-0.008794	-0.000535	0.004329	1.732418	0.008778	-0.223923	
43201	27.50	-9.781926	0.380300	0.442414	0.005880	-0.004172	0.007997	1.737042	0.010458	-0.223578	
43202	27.50	-9.781940	0.399596	0.449642	0.010274	-0.007637	-0.005824	1.735064	0.007868	-0.222739	
43203	27.50	-9.767393	0.375327	0.457003	0.001554	-0.013010	0.003484	1.734114	0.009854	-0.222176	
43204	27.50	-9.764965	0.372903	0.457016	-0.001819	-0.012882	-0.011294	1.735326	0.012076	-0.223446	
43205	27.50	-9.777099	0.387459	0.454524	0.010184	-0.012182	0.007107	1.734522	0.009576	-0.224264	
43206	27.50	-9.767378	0.380197	0.452152	-0.005329	-0.005853	0.000857	1.736072	0.010548	-0.223026	
43207	27.50	-9.767393	0.375327	0.457003	-0.003645	-0.005920	0.008677	1.733770	0.009065	-0.224321	
43208	27.50	-9.777133	0.384957	0.466634	-0.013970	-0.002269	0.000757	1.735562	0.010814	-0.223435	
43209	27.50	-9.774679	0.380182	0.456967	0.008460	-0.003312	0.010646	1.734667	0.009554	-0.223755	
43210	27.50	-9.774663	0.365723	0.449730	-0.000073	0.006614	-0.004102	1.734826	0.008763	-0.225739	
43211	27.50	-9.777115	0.380171	0.459380	0.001604	-0.012946	-0.005172	1.735818	0.010040	-0.223047	
43212	27.50	-9.767400	0.375311	0.459424	0.003309	-0.005898	0.002732	1.733670	0.008012	-0.223462	
43213	27.50	-9.762547	0.380119	0.461854	-0.006205	0.004765	0.007896	1.734283	0.009051	-0.223910	
43214	27.50	-9.764948	0.360862	0.449775	0.003301	0.001175	0.008010	1.734106	0.010118	-0.222425	
43215	27.50	-9.762560	0.380085	0.466697	-0.000106	-0.002282	-0.003344	1.734372	0.009207	-0.221787	
43216	27.50	-9.767405	0.380130	0.461836	0.008467	-0.002415	0.009789	1.733941	0.009140	-0.223188	
43217	27.50	-9.767396	0.365654	0.457020	-0.008883	-0.015707	0.011935	1.733724	0.009230	-0.222457	
43218	27.50	-9.767394	0.370491	0.457012	-0.003630	-0.002357	0.007854	1.736247	0.010492	-0.221769	
43219	27.50	-9.769807	0.380203	0.452143	0.008524	-0.002341	0.000266	1.733673	0.008265	-0.223461	
43220	27.50	-9.767367	0.394724	0.449705	0.000769	-0.003161	-0.005068	1.734695	0.010801	-0.223374	
43221	27.50	-9.767374	0.370541	0.449748	-0.001795	-0.006653	-0.012085	1.734819	0.009268	-0.222999	
43222	27.50	-9.772208	0.385113	0.442441	0.008500	-0.002374	0.004597	1.733272	0.010083	-0.224601	
43223	27.50	-9.769802	0.375384	0.449731	-0.001940	-0.004189	0.013924	1.735465	0.009503	-0.222453	
43224	27.50	-9.777094	0.380221	0.452116	0.005932	-0.001444	0.000235	1.736248	0.009355	-0.224512	
43225	27.50	-9.774676	0.389855	0.456950	-0.009553	0.012007	-0.007657	1.736416	0.009292	-0.220393	
43226	27.50	-9.767396	0.365654	0.457020	-0.008799	-0.005854	0.002528	1.734066	0.008630	-0.223057	
43227	27.50	-9.755249	0.370461	0.457057	0.003336	0.001224	0.001949	1.735575	0.009136	-0.222696	
43228	27.50	-9.772263	0.380142	0.461819	0.013758	-0.002301	-0.007440	1.735322	0.010674	-0.223205	
43229	27.50	-9.772234	0.387464	0.452121	0.008593	0.000406	-0.010090	1.732352	0.006536	-0.221947	
43230	27.50	-9.772255	0.384996	0.459389	0.001609	0.011859	0.006383	1.734607	0.008841	-0.222021	
43231	27.50	-9.777093	0.385058	0.452108	-0.005284	-0.005795	-0.006932	1.733454	0.008228	-0.222730	
43232	27.50	-9.781951	0.385070	0.452090	0.013728	-0.009428	-0.005790	1.733876	0.008944	-0.221700	
43233	27.50	-9.777107	0.382606	0.456954	-0.000935	-0.012862	-0.014739	1.733858	0.008197	-0.221954	
43234	27.50	-9.755246	0.380134	0.457039	0.003229	-0.013088	0.013035	1.734307	0.011327	-0.223898	
43235	27.50	-9.767378	0.380197	0.452152	-0.000124	0.001234	0.001895	1.736436	0.011585	-0.223492	
43236	27.50	-9.762521	0.375349	0.452179	-0.003634	-0.011219	0.004283	1.734026	0.008291	-0.223933	
43237	27.50	-9.772292	0.372821	0.471516	-0.000094	-0.004925	-0.006839	1.736001	0.010742	-0.221786	
43238	27.50	-9.764950	0.375355	0.452170	0.001550	0.001154	0.011447	1.734341	0.009753	-0.222658	
43239	27.50	-9.774735	0.370375	0.476353	-0.012287	-0.016506	0.001477	1.734520	0.009835	-0.224387	
43240	27.50	-9.765012	0.370368	0.473968	0.013594	-0.016685	0.013165	1.735297	0.008784	-0.223340	
43241	27.50	-9.767393	0.375327	0.457003	0.007618	-0.011247	0.002741	1.734269	0.009195	-0.224284	
43242	27.50	-9.781977	0.389839	0.461765	0.008552	-0.000533	-0.004038	1.736075	0.010801	-0.223025	
43243	27.50	-9.774668	0.370542	0.452143	0.000687	-0.005041	0.007896	1.734960	0.009890	-0.222737	
43244	27.50	-9.772255	0.384996	0.459389	0.001578	-0.009436	0.000932	1.734329	0.009000	-0.222787	
43245	27.50	-9.762531	0.389825	0.456995	-0.012241	-0.001389	0.001661	1.733812	0.009145	-0.223322	
43246	27.50	-9.772263	0.380142	0.461819	-0.000121	-0.012932	-0.006068	1.734704	0.010152	-0.223003	
43247	27.50	-9.767433	0.375227	0.471530	0.003358	-0.007603	-0.006814	1.737143	0.012149	-0.224558	
43248	27.50	-9.772263	0.380142	0.461819	0.003344	-0.007624	-0.004214	1.733970	0.008468	-0.222318	
43249	27.50	-9.772250	0.380176	0.456976	-0.000143	-0.004991	0.001821	1.734392	0.010207	-0.221532	
43250	27.50	-9.774672	0.380199	0.454546	-0.012228	-0.012888	-0.006269	1.733567	0.001478	-0.224372	
43251	27.50	-9.767371	0.380214	0.449731	0.006775	-0.009446	0.000151	1.735756	0.009471	-0.224423	
43252	27.50	-9.762513	0.380202	0.449749	0.005045	-0.004124	0.002783	1.737702	0.008119	-0.222048	
43253	27.50	-9.777094	0.382639	0.452112	-0.000153	-0.008548	0.001780	1.736304	0.008395	-0.222895	
43254	27.50	-9.767398	0.380147	0.459415	0.001701	-0.002188	-0.016301	1.734353	0.011402	-0.222774	
43255	27.50	-9.772250	0.380176	0.456976	0.006819	-0.007616	-0.006753	1.732432	0.010168	-0.223915	
43256	27.50	-9.767378	0.380197	0.452152	0.001631	-0.002281	-0.004179	1.735489	0.009348	-0.221830	
43257	27.50	-9.760104	0.380146	0.457021	-0.003643	-0.008572	0.006913	1.735490	0.009474	-0.221829	
43258	27.50	-9.767398	0.380147	0.459415	-0.006208	-0.004982	0.003450	1.734671	0.010445	-0.223875	
43259	27.50	-9.764950	0.375355	0.452170	-0.000027	0.006676	-0.011895	1.735968	0.009501	-0.222292	
43260	27.50	-9.774719	0.380081	0.471494	-0.013900	-0.002175	-0.011366	1.733210	0.008732	-0.222745	
43261	27.50	-9.781927	0.375464	0.442423	0.004140	-0.011264	0.006150	1.736101	0.008853	-0.221912	
43262	27.50	-9.774706	0.380115	0.466652	0.013686	-0.009481	0.001133	1.735819	0.008632	-0.222680	
43263	27.50	-9.777066	0.385125	0.442423	-0.000012	0.008465	-0.013600	1.735539	0.009561	-0.223692	
43264	27.50	-9.767392	0.380164	0.456994	0.006789	-0.009426	-0.002447	1.735358	0.010249	-0.222208	
43265	27.50	-9.757663	0.375337	0.452197	0.000726	-0.020042	-0.006142	1.732797	0.007367	-0.223404	
43266	27.50	-9.772228	0.385063	0.449704	-0.013947	-0.005782	-0.004480	1.735673	0.010062	-0.223555	
43267	27.50	-9.762520	0.380186	0.452170	0.001621	-0.014692	-0.008659	1.734051	0.007751	-0.223187	
43268	27.50	-9.767400	0.375311	0.459424	-0.005365	-0.018299	0.000706	1.734728	0.009997	-0.222380	
43269	27.50	-9.767377	0.385034	0.452143	0.003251	-0.003318	0.014022	1.735690	0.010683	-0.223302	
43270	27.50	-9.767360	0.372993	0.444902	-0.008762	-0.004034	-0.002643	1.734613	0.010767	-0.225371	
43271	27.50	-9.762521	0.375349	0.452179	-0.007905	0.000381	0.000887	1.736052	0.010571	-0.223525	
43272	27.50	-9.762493	0.380253	0.442486	0.006802	-0.012952	-0.005953	1.733462	0.008476	-0.222604	
43273	27.50	-9.767362	0.389904	0.447293	-0.005280	-0.004903	-0.006923	1.734733	0.009991	-0.222255	
43274	27.50	-9.774677	0.385018	0.456959	-0.000090	-0.002264	-0.005938	1.734387	0.009075	-0.224400	
43275	27.50	-9.777080	0.385091	0.447265	-0.002696	-0.010242	-0.007808	1.733439	0.009269	-0.223348	
43276	27.50	-9.781970	0.389856	0.459344	0.007650	-0.001466	0.001998	1.734606	0.010249	-0.222388	
43277	27.50	-9.781990	0.389806	0.466607	-0.003656	-0.005050	0.010425	1.734291	0.007379	-0.223295	
43278	27.50	-9.774665	0.380215	0.452125	0.001569	0.001178	0.007987	1.737437	0.011076	-0.223173	
43279	27.50	-9.767377	0.385034	0.452143	-0.000231	-0.014849	0.012094	1.732750	0.009452	-0.222029	
43280	27.50	-9.762507	0.380219	0.447328	-0.000144	-0.004105	0.002696	1.733513	0.010975	-0.221966	
43281	27.50	-9.764944	0.375372	0.449749	-0.006999	0.005745	-0.003363	1.734825	0.008877	-0.222751	
43282	27.50	-9.767392	0.380164	0.456994	0.008564	-0.000516	-0.005774	1.733680	0.009408	-0.223579	
43283	27.50	-9.777132	0.389794	0.466625	-0.000127	-0.002313	0.000124	1.734605	0.010634	-0.222510	
43284	27.50	-9.764929	0.380242	0.444898	0.004179	-0.017409	-0.003452	1.735112	0.008581	-0.221736	
43285	27.50	-9.764948	0.385028	0.452152	0.000741	-0.007625	-0.002526	1.736833	0.010410	-0.222598	
43286	27.50	-9.755249	0.370461	0.457057	-0.006982	0.006656	-0.005953	1.734735	0.008198	-0.221766	
43287	27.50	-9.767394	0.372909	0.457007	0.005039	-0.004133	0.003648	1.734710	0.008738	-0.222512	
43288	27.50	-9.772219	0.394752	0.447266	0.000697	-0.003256	0.007055	1.734981	0.007947	-0.221749	
43289	27.50	-9.772250	0.380176	0.456976	0.005188	0.005806	-0.017012	1.734722	0.008980	-0.222261	
43290	27.50	-9.755245	0.384971	0.457030	0.003340	0.001230	0.001085	1.735202	0.010156	-0.222967	
43291	27.50	-9.762564	0.365576	0.466723	0.006808	0.006543	0.002071	1.732207	0.008477	-0.222944	
43292	27.50	-9.767378	0.380197	0.452152	0.003300	-0.002369	0.006240	1.733957	0.010146	-0.223058	
43293	27.50	-9.767394	0.370491	0.457012	-0.005332	-0.004971	0.001732	1.734231	0.009096	-0.222172	
43294	27.50	-9.767394	0.372909	0.457007	0.001625	-0.014687	-0.009525	1.733707	0.009633	-0.222954	
43295	27.50	-9.772250	0.380176	0.456976	0.008437	-0.018398	0.007000	1.735704	0.010028	-0.222806	
43296	27.50	-9.762505	0.385056	0.447319	-0.002782	-0.003268	0.010457	1.735145	0.010093	-0.224340	
43297	27.50	-9.777108	0.380188	0.456958	0.005878	-0.004172	0.007995	1.736650	0.012139	-0.224470	
43298	27.50	-9.772225	0.394736	0.449687	0.008555	-0.004073	-0.005813	1.734960	0.009378	-0.222615	
43299	27.50	-9.767339	0.375461	0.437634	-0.000152	-0.009433	0.001767	1.735204	0.009897	-0.222843	
43300	27.50	-9.781953	0.380233	0.452098	0.010197	-0.013052	0.004499	1.735528	0.008039	-0.223575	
43301	27.50	-9.777110	0.372933	0.456971	-0.005261	-0.001336	-0.008613	1.733525	0.010465	-0.224581	
43302	27.50	-9.774675	0.392273	0.456946	-0.008820	-0.009426	0.004223	1.736391	0.009832	-0.221139	
43303	27.50	-9.767429	0.389736	0.471503	0.005036	-0.011220	0.000101	1.733336	0.007325	-0.222370	
43304	27.50	-9.769849	0.375266	0.466678	0.005068	-0.012950	-0.005983	1.735729	0.009999	-0.222182	
43305	27.50	-9.762574	0.380052	0.471539	0.018046	-0.007676	-0.003971	1.734710	0.009761	-0.222756	
43306	27.50	-9.767353	0.373010	0.442481	0.005909	-0.010330	0.000125	1.735582	0.009768	-0.222692	
43307	27.50	-9.767406	0.375294	0.461845	-0.005320	0.003016	0.003560	1.735372	0.011128	-0.222079	
43308	27.50	-9.767401	0.394640	0.461810	0.006793	-0.000564	0.001126	1.732834	0.008476	-0.222774	
43309	27.50	-9.767393	0.375327	0.457003	0.006812	-0.003196	-0.003238	1.735949	0.009651	-0.222790	
43310	27.50	-9.772228	0.385063	0.449704	-0.005370	-0.005908	0.007786	1.734308	0.007488	-0.222920	
43311	27.50	-9.781974	0.399512	0.461748	-0.009674	-0.008523	0.002490	1.734866	0.009343	-0.221875	
43312	27.50	-9.772227	0.389899	0.449696	0.010203	-0.004186	0.008068	1.736123	0.010491	-0.221778	
43313	27.50	-9.767377	0.385034	0.452143	0.003368	-0.004935	-0.006779	1.734707	0.008486	-0.222513	
43314	27.56	-9.767720	0.384822	0.466560	0.004133	0.000281	0.007109	1.734628	0.009752	-0.222558	
43315	27.56	-9.767696	0.375216	0.456893	0.005074	-0.002280	-0.006763	1.732443	0.008149	-0.223970	
43316	27.56	-9.777424	0.382461	0.461686	-0.003562	-0.002232	-0.009502	1.736402	0.010755	-0.221926	
43317	27.56	-9.767718	0.392077	0.466547	0.003294	-0.004996	0.000105	1.734902	0.010237	-0.222038	
43318	27.56	-9.762863	0.379974	0.466587	0.008557	0.004826	-0.007487	1.736876	0.011426	-0.222635	
43319	27.56	-9.772539	0.380098	0.452024	0.011059	-0.003279	0.004585	1.733734	0.009642	-0.223122	
43320	27.56	-9.770126	0.372804	0.456889	-0.015790	-0.005889	0.009298	1.734490	0.009269	-0.225807	
43321	27.56	-9.777398	0.380110	0.452006	0.011980	-0.003210	-0.004923	1.735149	0.009986	-0.222021	
43322	27.56	-9.772533	0.380115	0.449603	0.001493	-0.000659	0.014848	1.733587	0.008388	-0.223388	
43323	27.56	-9.772544	0.363170	0.452055	-0.005304	0.011927	0.000160	1.734973	0.009019	-0.223035	
43324	27.56	-9.767683	0.372832	0.452055	0.004187	-0.006735	-0.005100	1.737821	0.010341	-0.223567	
43325	27.56	-9.777415	0.365567	0.456875	-0.005343	-0.015579	-0.007097	1.735075	0.007767	-0.223282	
43326	27.56	-9.777416	0.384896	0.459261	-0.005352	-0.012933	-0.004464	1.735731	0.011060	-0.223219	
43327	27.56	-9.777410	0.384913	0.456840	-0.000228	-0.005955	0.010427	1.734952	0.008916	-0.223535	
43328	27.56	-9.767671	0.370447	0.447217	0.007667	-0.006720	-0.008505	1.734522	0.010113	-0.222191	
43329	27.56	-9.772539	0.380098	0.452024	-0.000164	-0.004983	0.000047	1.735891	0.009486	-0.221970	
43330	27.56	-9.777424	0.380043	0.461691	-0.000143	-0.005840	-0.004293	1.735246	0.008866	-0.222393	
43331	27.56	-9.767680	0.384923	0.452034	-0.007065	-0.016446	-0.008867	1.735851	0.010555	-0.223212	
43332	27.56	-9.767666	0.384956	0.447191	0.003279	-0.016531	-0.002632	1.732995	0.007452	-0.222439	
43333	27.56	-9.765266	0.380047	0.456893	-0.003644	-0.004996	0.003450	1.736417	0.009203	-0.221186	
43334	27.56	-9.753136	0.372729	0.461793	0.003283	-0.004123	0.002706	1.735633	0.008599	-0.221993	
43335	27.56	-9.767735	0.379952	0.471411	0.011102	-0.001448	-0.002322	1.735344	0.010689	-0.223497	
43336	27.56	-9.774989	0.380054	0.459279	0.005037	-0.012957	-0.006024	1.733997	0.009500	-0.222730	
43337	27.56	-9.782321	0.387209	0.476186	0.010200	-0.005039	0.001954	1.734190	0.008031	-0.223719	
43338	27.56	-9.774994	0.384874	0.461691	-0.010597	-0.004132	0.009409	1.735783	0.009595	-0.221604	
43339	27.56	-9.775006	0.389677	0.466525	0.003250	-0.013026	0.003473	1.735264	0.008590	-0.221895	
43340	27.56	-9.774982	0.380071	0.456858	0.006747	-0.002362	0.002792	1.735810	0.011227	-0.221345	
43341	27.56	-9.777371	0.380177	0.442322	-0.003612	-0.001415	0.000033	1.734412	0.009969	-0.221826	
43342	27.56	-9.777411	0.380077	0.456849	-0.003617	-0.007619	-0.002640	1.734071	0.009047	-0.223847	
43343	27.50	-9.767371	0.380214	0.449731	-0.002650	0.009305	-0.005844	1.735679	0.013125	-0.224162	
43344	27.50	-9.777134	0.382539	0.466638	-0.008761	-0.009346	-0.006168	1.733448	0.009131	-0.223100	
43345	27.50	-9.774690	0.365656	0.459415	-0.001888	-0.010319	0.001726	1.735028	0.010453	-0.221236	
43346	27.50	-9.767423	0.365587	0.466705	0.001476	-0.006027	0.020018	1.732832	0.008735	-0.222898	
43347	27.50	-9.769837	0.370463	0.461845	0.005038	-0.007676	0.001873	1.735916	0.010455	-0.223784	
43348	27.50	-9.767457	0.384833	0.481196	0.000815	0.003989	-0.010181	1.735014	0.009189	-0.221243	
43349	27.50	-9.777133	0.387375	0.466630	0.000743	-0.009394	-0.004277	1.733863	0.007680	-0.221707	
43350	27.50	-9.772263	0.380142	0.461819	-0.012214	-0.000469	-0.002657	1.736123	0.011513	-0.222022	
43351	27.50	-9.762508	0.375383	0.447337	-0.005292	-0.002261	-0.003431	1.735150	0.009576	-0.224093	
43352	27.50	-9.781965	0.385036	0.456932	-0.003540	-0.005782	-0.009500	1.736208	0.009130	-0.222401	
43353	27.50	-9.767432	0.380063	0.471521	0.006860	0.000412	-0.010122	1.735230	0.009869	-0.222219	
43354	27.50	-9.784347	0.385159	0.439975	-0.001853	-0.000535	0.000985	1.734302	0.009413	-0.223534	
43355	27.50	-9.767380	0.375361	0.452161	-0.005263	-0.009307	-0.012174	1.736062	0.009025	-0.222910	
43356	27.50	-9.767365	0.380231	0.447310	-0.007032	-0.004041	-0.002613	1.734195	0.008114	-0.222801	
43357	27.50	-9.762543	0.370462	0.459451	-0.005352	-0.001454	0.006968	1.736242	0.009986	-0.221772	
43358	27.50	-9.769797	0.370564	0.447318	0.005076	0.003000	0.001137	1.734454	0.008616	-0.222655	
43359	27.50	-9.767390	0.385000	0.456986	-0.002788	-0.017447	0.004225	1.734560	0.009789	-0.223389	
43360	27.50	-9.767400	0.375311	0.459424	-0.005259	0.001326	-0.007717	1.735137	0.008311	-0.224100	
43361	27.50	-9.772252	0.372921	0.456989	0.003322	0.000317	0.003674	1.735301	0.006221	-0.222605	
43362	27.50	-9.777093	0.385058	0.452108	0.005018	-0.016561	0.000905	1.736067	0.010042	-0.223029	
43363	27.50	-9.777121	0.382572	0.461796	0.005103	-0.002277	-0.006717	1.734585	0.009760	-0.222765	
43364	27.50	-9.772230	0.380226	0.449713	-0.008798	0.008315	0.009630	1.735592	0.009757	-0.222443	
43365	27.50	-9.762508	0.375383	0.447337	-0.013984	-0.010258	-0.000208	1.735584	0.009510	-0.222569	
43366	27.50	-9.786844	0.380161	0.464186	-0.006149	-0.008448	-0.008710	1.735713	0.010913	-0.222802	
43367	27.50	-9.781995	0.372878	0.466638	-0.003551	-0.014653	-0.012207	1.736362	0.011016	-0.222131	
43368	27.50	-9.769848	0.380103	0.466670	-0.007112	-0.023628	0.000614	1.734049	0.008009	-0.223310	
43369	27.50	-9.774737	0.365538	0.476362	0.001630	0.000375	-0.003284	1.734290	0.002151	-0.225063	
43370	27.50	-9.772269	0.384962	0.464231	0.011185	-0.006689	-0.013597	1.734355	0.000301	-0.226062	
43371	27.50	-9.786809	0.385081	0.452072	0.006859	0.006605	-0.006578	1.734669	-0.000283	-0.224300	
43372	27.56	-9.767728	0.379969	0.468990	0.008526	-0.002301	-0.005840	1.735511	0.007443	-0.221634	
43373	27.56	-9.767697	0.372798	0.456898	-0.005353	-0.004963	-0.000043	1.735745	0.002985	-0.220891	
43374	27.56	-9.772527	0.375295	0.447191	0.003289	-0.002348	0.002734	1.736752	0.011936	-0.222766	
43375	27.56	-9.762784	0.375338	0.437542	-0.000133	-0.009370	-0.006936	1.734642	0.009609	-0.222185	
43376	27.56	-9.772551	0.384901	0.456858	-0.000264	-0.020171	0.009389	1.735392	0.011402	-0.222495	
43377	27.56	-9.765267	0.375210	0.456902	-0.012196	0.000477	-0.010484	1.736060	0.009707	-0.223948	
43378	27.56	-9.782241	0.384992	0.447138	-0.005371	-0.005876	0.002550	1.735341	0.009413	-0.223255	
43379	27.56	-9.765295	0.372725	0.466591	0.004154	-0.005005	0.000981	1.737390	0.010901	-0.222103	
43380	27.56	-9.757953	0.375260	0.447245	0.001560	-0.002338	0.002701	1.732495	0.008218	-0.222721	
43381	27.56	-9.767668	0.380120	0.447200	0.013670	0.003818	0.005579	1.736787	0.010361	-0.221527	
43382	27.56	-9.767724	0.370313	0.466586	-0.008730	-0.005726	-0.014831	1.734868	0.009381	-0.222667	
43383	27.56	-9.772582	0.370325	0.466568	0.004067	-0.013977	0.011265	1.735885	0.009877	-0.222217	
43384	27.56	-9.772598	0.384784	0.473805	0.008474	-0.002370	0.002820	1.734837	0.008903	-0.223294	
43385	27.56	-9.767681	0.382505	0.452038	0.008480	0.000294	0.003718	1.733393	0.008834	-0.222155	
43386	27.56	-9.767697	0.370380	0.456902	0.018942	-0.000518	-0.010841	1.736626	0.010786	-0.222532	
43387	27.56	-9.772556	0.370392	0.456884	-0.001054	-0.005014	0.004359	1.734096	0.009018	-0.223223	
43388	27.56	-9.777424	0.382461	0.461686	-0.010531	-0.009359	-0.004509	1.735353	0.009655	-0.223004	
43389	27.56	-9.772607	0.379931	0.476235	0.004961	-0.008627	0.008747	1.735562	0.009191	-0.223862	
43390	27.56	-9.772539	0.380098	0.452024	0.005885	-0.006783	0.000126	1.735200	0.009815	-0.223761	
43391	27.56	-9.777421	0.392134	0.461669	-0.001873	-0.014691	-0.008756	1.735284	0.011510	-0.222129	
43392	27.56	-9.782308	0.384824	0.471349	0.004284	-0.003063	-0.020638	1.734839	0.007622	-0.222927	
43393	27.56	-9.777383	0.382562	0.447160	0.003281	0.003840	0.007140	1.738187	0.010609	-0.223788	
43394	27.56	-9.767700	0.360707	0.456919	-0.001871	0.008339	0.002771	1.733278	0.009207	-0.222037	
43395	27.56	-9.767696	0.375216	0.456893	-0.003662	-0.011219	0.003375	1.734554	0.010717	-0.221563	
43396	27.56	-9.784710	0.384897	0.461655	-0.014032	-0.009402	0.002362	1.734974	0.008634	-0.222912	
43397	27.56	-9.767742	0.379936	0.473832	-0.012255	-0.004913	-0.003622	1.735179	0.009326	-0.224138	
43398	27.56	-9.772537	0.389771	0.452007	-0.001942	-0.005927	0.007801	1.737283	0.009216	-0.221247	
43399	27.56	-9.758009	0.389618	0.469008	0.000755	-0.004910	-0.009466	1.734288	0.009071	-0.221591	
43400	27.56	-9.762818	0.375255	0.449648	-0.001869	0.011883	0.004547	1.734769	0.010886	-0.222418	
43401	27.50	-9.772265	0.372888	0.461832	-0.020911	-0.004929	0.003204	1.735254	0.007794	-0.221108	
43402	27.50	-9.772289	0.384912	0.471494	0.006786	-0.002344	0.001103	1.735339	0.010398	-0.222707	
43403	27.50	-9.762512	0.385039	0.449740	0.003260	-0.018362	0.005181	1.735065	0.009914	-0.223227	
43404	27.50	-9.762546	0.382537	0.461850	-0.007045	-0.007597	-0.002658	1.734103	0.007308	-0.221816	
43405	27.50	-9.767421	0.370424	0.466696	0.011995	-0.001451	-0.001400	1.736381	0.009843	-0.221389	
43406	27.50	-9.757689	0.377688	0.461877	0.001569	-0.005903	0.004433	1.734460	0.008225	-0.222408	
43407	27.50	-9.772266	0.370469	0.461836	0.005074	-0.009401	-0.005074	1.735009	0.009194	-0.221368	
43408	27.50	-9.786849	0.387399	0.466594	-0.001909	-0.018318	0.000770	1.735698	0.009011	-0.222687	
43409	27.50	-9.777141	0.380104	0.469064	-0.008728	-0.006646	-0.010466	1.734651	0.008037	-0.223764	
43410	27.50	-9.786809	0.385081	0.452072	-0.000090	0.001276	-0.004160	1.737714	0.009768	-0.222163	
43411	27.50	-9.779568	0.365617	0.466660	-0.008720	0.006649	-0.005112	1.733464	0.008728	-0.222603	
43412	27.50	-9.781938	0.385103	0.447247	-0.001870	-0.009411	-0.000855	1.735499	0.009848	-0.221702	
43413	27.50	-9.764942	0.380208	0.449740	-0.008816	0.000323	0.008666	1.734525	0.009047	-0.221030	
43414	27.50	-9.777086	0.385074	0.449686	0.003330	0.004754	0.004597	1.734425	0.009288	-0.223525	
43415	27.50	-9.769847	0.382521	0.466665	0.006823	-0.012923	-0.010282	1.736246	0.010877	-0.221892	
43416	27.50	-9.774678	0.382600	0.456963	-0.001952	-0.013060	0.011221	1.734903	0.011746	-0.224599	
43417	27.50	-9.772247	0.389849	0.456959	-0.000154	-0.012090	0.000006	1.736470	0.010396	-0.222375	
43418	27.50	-9.767406	0.375294	0.461845	0.005079	-0.012936	-0.007714	1.736260	0.009710	-0.221274	
43419	27.50	-9.772267	0.365633	0.461845	0.010309	-0.000503	-0.008344	1.734935	0.009918	-0.223361	
43420	27.50	-9.767418	0.380097	0.466679	-0.005341	-0.002325	0.004362	1.736130	0.009986	-0.224518	
43421	27.50	-9.777101	0.380204	0.454537	0.001632	-0.006709	-0.006828	1.734769	0.009837	-0.224369	
43422	27.50	-9.782009	0.370426	0.471484	-0.000194	-0.009487	0.007828	1.735854	0.010512	-0.222295	
43423	27.50	-9.767377	0.382616	0.452148	-0.001808	-0.014641	-0.013911	1.734535	0.009306	-0.223891	
43424	27.50	-9.774665	0.380215	0.452125	-0.001860	0.001231	0.002734	1.735313	0.007358	-0.222599	
43425	27.50	-9.769821	0.380170	0.456985	-0.006970	-0.011929	-0.017429	1.735320	0.009013	-0.222839	
43426	27.50	-9.767364	0.382649	0.447306	-0.005287	-0.002256	-0.004294	1.735439	0.009532	-0.223077	
43427	27.50	-9.767425	0.380080	0.469100	0.001603	-0.002317	0.000149	1.737942	0.011712	-0.223133	
43428	27.50	-9.772277	0.380109	0.466661	0.006782	-0.004121	0.001081	1.734661	0.007514	-0.223392	
43429	27.50	-9.772247	0.389849	0.456959	-0.020829	0.005806	-0.005322	1.734845	0.010262	-0.222619	
43430	27.50	-9.762519	0.385022	0.452161	-0.007084	-0.004108	0.006044	1.733089	0.007847	-0.225496	
43431	27.50	-9.767405	0.380130	0.461836	0.006753	-0.009474	0.003614	1.735124	0.009207	-0.221608	
43432	27.50	-9.777092	0.387476	0.452103	0.011897	0.001072	0.016820	1.735212	0.009122	-0.222473	
43433	27.50	-9.777106	0.385024	0.456950	0.003402	0.007508	-0.006628	1.734337	0.008862	-0.222538	
43434	27.50	-9.777147	0.384924	0.471476	-0.002796	0.000255	0.013965	1.734654	0.008802	-0.223884	
43435	27.50	-9.772234	0.389882	0.452117	-0.008763	0.008362	0.003571	1.732771	0.008804	-0.224395	
43436	27.50	-9.769821	0.380170	0.456985	-0.001830	-0.005812	-0.006011	1.735369	0.010364	-0.221958	
43437	27.50	-9.767417	0.384933	0.466670	-0.005329	-0.006737	-0.000019	1.735964	0.009633	-0.222416	
43438	27.50	-9.772224	0.375406	0.447301	-0.006236	-0.005022	0.008646	1.736199	0.010290	-0.222893	
43439	27.50	-9.774678	0.382600	0.456963	0.005921	-0.003229	0.001079	1.735581	0.012199	-0.223303	
43440	27.50	-9.767378	0.380197	0.452152	0.005136	0.006623	-0.007478	1.733861	0.007042	-0.221586	
43441	27.50	-9.767390	0.385000	0.456986	-0.001837	-0.003165	-0.003381	1.736180	0.009417	-0.223148	
43442	27.50	-9.777071	0.392363	0.444831	-0.002757	-0.008552	0.003471	1.734773	0.009705	-0.224245	
43443	27.50	-9.760104	0.380146	0.457021	0.006850	-0.007572	-0.011951	1.735641	0.011378	-0.224671	
43444	27.50	-9.777076	0.375435	0.444862	-0.005298	-0.009356	-0.006110	1.734133	0.010216	-0.221800	
43445	27.50	-9.772277	0.380109	0.466661	-0.000135	-0.004978	0.000089	1.733443	0.007602	-0.222858	
43446	27.50	-9.774663	0.389888	0.452108	-0.001840	-0.005827	-0.004277	1.735117	0.011517	-0.222344	
43447	27.50	-9.762550	0.370446	0.461872	0.000696	-0.005025	0.006161	1.734517	0.010093	-0.224510	
43448	27.50	-9.762539	0.384972	0.459425	0.000722	-0.008535	0.000060	1.734444	0.009650	-0.223149	
43449	27.50	-9.772236	0.380209	0.452134	-0.007021	-0.008454	-0.006995	1.736034	0.009824	-0.223779	
43450	27.50	-9.762533	0.380152	0.457012	0.005019	-0.016557	0.000901	1.735015	0.008563	-0.224108	
43451	27.50	-9.767418	0.380097	0.466679	-0.002719	-0.013811	-0.006123	1.735832	0.010408	-0.222795	
43452	27.50	-9.772236	0.382628	0.452130	0.001519	-0.002431	0.014870	1.733572	0.008620	-0.222969	
43453	27.50	-9.772232	0.370553	0.449731	0.000756	-0.005835	-0.004237	1.736134	0.009583	-0.221284	
43454	27.50	-9.786807	0.394754	0.452054	-0.000080	-0.016424	-0.014762	1.733847	0.008082	-0.222204	
43455	27.50	-9.772250	0.380176	0.456976	-0.002743	-0.001446	0.004418	1.734664	0.009927	-0.220892	
43456	27.50	-9.760093	0.372925	0.452192	0.008530	-0.016501	-0.007701	1.734832	0.009509	-0.222748	
43457	27.50	-9.762562	0.372830	0.466710	0.006816	-0.004960	-0.004994	1.733777	0.008289	-0.223951	
43458	27.50	-9.772238	0.375373	0.452143	0.003371	-0.002275	-0.005882	1.735610	0.009992	-0.222067	
43459	27.50	-9.781971	0.385019	0.459353	-0.003647	-0.009467	0.006908	1.733490	0.009723	-0.222223	
43460	27.50	-9.781965	0.382618	0.456936	0.001543	-0.000629	0.011430	1.734619	0.010490	-0.222137	
43461	27.50	-9.774672	0.380199	0.454546	0.000674	-0.013029	0.006069	1.734238	0.008832	-0.221923	
43462	27.50	-9.777104	0.394697	0.456932	-0.006122	0.000444	-0.008602	1.734348	0.010385	-0.222655	
43463	27.50	-9.777093	0.385058	0.452108	0.004156	-0.008584	0.004451	1.735913	0.011099	-0.224031	
43464	27.50	-9.772239	0.370536	0.452152	0.000718	-0.006771	0.001813	1.733584	0.008224	-0.222596	
43465	27.50	-9.772251	0.375339	0.456985	0.000790	-0.004017	-0.009410	1.734746	0.010744	-0.222126	
43466	27.50	-9.767421	0.372842	0.466692	-0.007091	-0.009431	0.004247	1.734302	0.008902	-0.223412	
43467	27.50	-9.767393	0.375327	0.457003	-0.009641	-0.001392	0.000837	1.732850	0.008970	-0.222522	
43468	27.50	-9.777117	0.372916	0.459393	-0.003616	-0.011196	0.000822	1.734866	0.009343	-0.221875	
43469	27.50	-9.777121	0.382572	0.461796	-0.005328	-0.006738	-0.000017	1.733527	0.010206	-0.224458	
43470	27.50	-9.762519	0.382604	0.452166	-0.001874	-0.004100	0.002667	1.738282	0.010986	-0.223734	
43471	27.50	-9.762507	0.380219	0.447328	-0.005282	-0.002248	-0.005162	1.733561	0.009017	-0.223341	
43472	27.50	-9.769798	0.387475	0.449709	0.000825	0.005769	-0.010156	1.735860	0.009609	-0.221926	
43473	27.50	-9.781978	0.385003	0.461774	0.010254	-0.001462	0.000309	1.733880	0.008812	-0.221576	
43474	27.50	-9.777100	0.385041	0.454529	-0.020898	-0.005799	0.000600	1.735572	0.009780	-0.222942	
43475	27.50	-9.772235	0.385046	0.452126	0.010325	0.008374	-0.006502	1.736587	0.010150	-0.222493	
43476	27.50	-9.767398	0.380147	0.459415	0.005028	-0.009460	0.002719	1.733566	0.009011	-0.223216	
43477	27.50	-9.767390	0.385000	0.456986	0.001622	-0.006720	-0.005098	1.735588	0.010912	-0.222811	
43478	27.50	-9.774704	0.384951	0.466643	-0.005352	-0.009426	0.002548	1.733803	0.008772	-0.223449	
43479	27.50	-9.777143	0.372849	0.469077	0.006837	0.013664	0.000429	1.733584	0.009758	-0.222962	
43480	27.50	-9.772248	0.385012	0.456968	-0.008896	-0.018382	0.012773	1.735008	0.009339	-0.224478	
43481	27.50	-9.772254	0.365666	0.457002	0.008547	-0.004968	-0.004963	1.734710	0.008738	-0.222512	
43482	27.50	-9.767400	0.372892	0.459428	-0.001911	-0.013005	0.004291	1.736598	0.009753	-0.222120	
43483	27.50	-9.762559	0.384922	0.466688	0.001537	-0.007717	0.008743	1.733709	0.009248	-0.222831	
43484	27.50	-9.777118	0.392245	0.461779	-0.003642	-0.013002	0.004267	1.733989	0.009342	-0.222064	
43485	27.50	-9.772232	0.394719	0.452108	0.001577	-0.001468	0.005359	1.734450	0.007214	-0.222413	
43486	27.50	-9.767392	0.380164	0.456994	0.010203	-0.007728	0.006291	1.733958	0.009250	-0.222813	
43487	27.50	-9.772222	0.382661	0.447288	0.005050	-0.018290	-0.005178	1.736845	0.012060	-0.222714	
43488	27.56	-9.772551	0.384901	0.456858	-0.001887	-0.007624	-0.002611	1.734269	0.009220	-0.222089	
43489	27.56	-9.757996	0.365486	0.461789	0.004183	-0.012936	-0.007776	1.735917	0.009855	-0.224455	
43490	27.56	-9.772564	0.389704	0.461691	0.005103	-0.007555	-0.014617	1.734494	0.007843	-0.222328	
43491	27.56	-9.772580	0.379998	0.466551	0.007532	-0.012212	0.011346	1.735382	0.008982	-0.222134	
43492	27.56	-9.772566	0.380031	0.461709	0.005052	-0.000538	-0.002411	1.736375	0.010146	-0.222429	
43493	27.56	-9.767721	0.382404	0.466564	-0.000156	-0.012055	-0.005235	1.735080	0.009296	-0.223523	
43494	27.56	-9.772510	0.387420	0.442327	0.003305	0.006528	0.004574	1.735322	0.009563	-0.223753	
43495	27.56	-9.767731	0.370296	0.469007	-0.005297	-0.005772	-0.010445	1.732580	0.003914	-0.222611	
43496	27.56	-9.774994	0.384874	0.461691	-0.004515	-0.010316	0.001643	1.736384	0.009496	-0.222058	
43497	27.56	-9.767697	0.370380	0.456902	0.005898	-0.000566	0.001064	1.735873	0.008739	-0.222223	
43498	27.56	-9.757973	0.351044	0.452130	0.001509	-0.002405	0.011355	1.735223	0.009533	-0.223138	
43499	27.56	-9.774991	0.394547	0.461674	0.015405	0.006475	0.005643	1.736382	0.010778	-0.222426	
43500	27.56	-9.777381	0.389817	0.447147	-0.001850	-0.002264	-0.006008	1.734144	0.007059	-0.224598	
43501	27.56	-9.772557	0.365555	0.456893	-0.001919	-0.010324	0.001682	1.736253	0.009886	-0.222315	
43502	27.56	-9.767696	0.375216	0.456893	0.003293	-0.004112	0.000979	1.735631	0.007961	-0.221871	
43503	27.56	-9.767680	0.384923	0.452034	0.000712	-0.006743	-0.002558	1.735679	0.009457	-0.224101	
43504	27.56	-9.762865	0.372719	0.466600	0.006716	0.001142	0.009757	1.734434	0.012516	-0.224924	
43505	27.56	-9.753107	0.380051	0.452096	0.003297	-0.012076	-0.003449	1.733194	0.009046	-0.224035	
43506	27.56	-9.772538	0.384935	0.452016	0.001508	-0.016580	0.004266	1.737105	0.010427	-0.222872	
43507	27.56	-9.772607	0.377512	0.476240	0.001565	-0.000560	0.001859	1.734486	0.008619	-0.222699	
43508	27.56	-9.767734	0.384789	0.471402	0.011899	-0.004199	0.008051	1.735619	0.009254	-0.222488	
43509	27.56	-9.775018	0.370314	0.468980	0.005033	-0.008533	-0.003375	1.733971	0.010425	-0.223599	
43510	27.56	-9.762851	0.377589	0.461749	0.006803	-0.004057	-0.007623	1.734560	0.009189	-0.224060	
43511	27.56	-9.772580	0.379998	0.466551	-0.010537	-0.002280	-0.000096	1.735344	0.011201	-0.223620	
43512	27.56	-9.772537	0.387353	0.452011	-0.013954	-0.011068	-0.011514	1.734055	0.010472	-0.224588	
43513	27.56	-9.777423	0.384880	0.461682	0.001620	-0.003146	-0.008560	1.735848	0.009791	-0.223092	
43514	27.56	-9.767707	0.360690	0.459340	-0.006299	-0.019238	0.006696	1.736807	0.009201	-0.223771	
43515	27.56	-9.777411	0.380077	0.456849	0.003363	0.004836	-0.006704	1.736170	0.008942	-0.221081	
43516	27.56	-9.782237	0.399501	0.447112	-0.000212	-0.005935	0.007834	1.735614	0.009772	-0.222735	
43517	27.56	-9.767697	0.370380	0.456902	0.006745	-0.008563	0.000117	1.733081	0.008137	-0.223550	
43518	27.56	-9.762796	0.380141	0.442376	0.004051	-0.015771	0.013842	1.735040	0.010479	-0.221778	
43519	27.56	-9.774954	0.382556	0.447169	-0.009702	-0.001440	0.005992	1.735039	0.009456	-0.221534	
43520	27.56	-9.777426	0.375207	0.461699	-0.006225	0.000344	0.003472	1.734932	0.009179	-0.221045	
43521	27.56	-9.767708	0.380019	0.461727	-0.001808	-0.003091	-0.013816	1.734485	0.008492	-0.222699	
43522	27.56	-9.782248	0.384975	0.449559	0.013793	-0.003992	-0.019622	1.735661	0.007927	-0.221123	
43523	27.56	-9.777398	0.380110	0.452006	0.015386	-0.004179	0.003782	1.736270	0.010507	-0.222062	
43524	27.56	-9.777400	0.372855	0.452019	0.008477	-0.012996	-0.002503	1.733421	0.007921	-0.224273	
43525	27.56	-9.782230	0.375352	0.442313	-0.005367	-0.003214	0.003446	1.735441	0.009569	-0.223869	
43526	27.56	-9.748265	0.370332	0.456974	0.003299	-0.002329	0.000995	1.734078	0.007759	-0.223355	
43527	27.56	-9.772607	0.379931	0.476235	-0.004456	-0.008465	-0.007862	1.734631	0.008085	-0.222068	
43528	27.56	-9.777450	0.384813	0.471366	0.008499	-0.004108	-0.002395	1.735173	0.008423	-0.221031	
43529	27.56	-9.779849	0.394559	0.461656	-0.007937	0.001258	0.000861	1.734470	0.008510	-0.223074	
43530	27.56	-9.784663	0.385015	0.444708	0.003309	-0.005867	-0.002500	1.736378	0.009375	-0.222184	
43531	27.56	-9.777399	0.375274	0.452015	-0.000192	-0.007678	0.003478	1.733973	0.008121	-0.222987	
43532	27.56	-9.772561	0.375211	0.459296	0.000634	-0.006845	0.010428	1.734707	0.009805	-0.223673	
43533	27.56	-9.767703	0.372781	0.459319	-0.002807	-0.020092	0.000684	1.735250	0.009246	-0.222391	
43534	27.56	-9.767723	0.375149	0.466578	0.006771	-0.004099	-0.002427	1.735224	0.010683	-0.223382	
43535	27.56	-9.767681	0.380086	0.452042	-0.005320	0.006594	0.000098	1.736709	0.012241	-0.223888	
43536	27.56	-9.777397	0.382528	0.452002	0.010232	-0.011198	-0.005914	1.734596	0.009149	-0.223186	
43537	27.56	-9.787110	0.392225	0.451949	-0.000211	-0.006819	0.006957	1.736884	0.011161	-0.222387	
43538	27.56	-9.772515	0.372910	0.442353	0.008454	-0.014799	0.000939	1.735496	0.009891	-0.222619	
43539	27.56	-9.772564	0.387286	0.461696	-0.003602	-0.000513	-0.001689	1.736851	0.010431	-0.223015	
43540	27.56	-9.767701	0.380036	0.459306	0.005083	-0.007581	-0.011156	1.735886	0.009492	-0.222094	
43541	27.56	-9.772553	0.380065	0.456867	-0.005394	-0.015646	0.001563	1.734685	0.009701	-0.224173	
43542	27.56	-9.767708	0.380019	0.461727	-0.000178	-0.000571	0.004428	1.736944	0.011477	-0.221012	
43543	27.56	-9.777411	0.380077	0.456849	-0.012265	0.001269	0.001651	1.734173	0.009330	-0.224461	
43544	27.56	-9.777454	0.370303	0.471393	-0.001884	-0.009391	-0.004367	1.735327	0.009557	-0.223629	
43545	27.56	-9.767699	0.363125	0.456915	-0.007123	0.002074	0.010402	1.735558	0.008300	-0.223742	
43546	27.56	-9.770136	0.384862	0.461709	0.010160	-0.014834	0.004431	1.736364	0.010542	-0.222801	
43547	27.56	-9.767708	0.380019	0.461727	-0.000173	0.006520	0.007111	1.737380	0.011424	-0.222474	
43548	27.56	-9.777442	0.389666	0.468937	-0.008910	-0.000651	0.018139	1.734807	0.008426	-0.223921	
43549	27.56	-9.767668	0.380120	0.447200	0.011895	0.005535	0.014230	1.736396	0.010123	-0.221930	
43550	27.56	-9.787102	0.399497	0.449515	0.004180	-0.008518	-0.005112	1.735133	0.008469	-0.222030	
43551	27.56	-9.782280	0.389728	0.461655	0.013624	-0.021928	0.000078	1.737085	0.011474	-0.223616	
43552	27.56	-9.772525	0.384968	0.447173	0.004172	-0.001442	0.000163	1.736859	0.009782	-0.222644	
43553	27.56	-9.762850	0.380007	0.461745	0.013679	-0.003254	0.000297	1.735863	0.008751	-0.222473	
43554	27.56	-9.791993	0.401843	0.461598	-0.003614	-0.005846	-0.002612	1.735219	0.009665	-0.223263	
43555	27.56	-9.777369	0.385014	0.442313	0.006805	-0.002288	-0.006730	1.732885	0.008842	-0.222441	
43556	27.56	-9.760421	0.380002	0.461754	0.003323	-0.004071	-0.004217	1.734873	0.010398	-0.222786	
43557	27.56	-9.767701	0.380036	0.459306	-0.005374	-0.012076	-0.000127	1.735879	0.008348	-0.221976	
43558	27.56	-9.767696	0.375216	0.456893	0.005885	-0.003239	0.001899	1.735129	0.009112	-0.222276	
43559	27.56	-9.762830	0.380058	0.454481	-0.009662	0.005701	0.002611	1.736690	0.011367	-0.224143	
43560	27.56	-9.774981	0.384907	0.456849	0.003328	0.001246	-0.002417	1.734325	0.007509	-0.223338	
43561	27.56	-9.772580	0.379998	0.466551	-0.007136	-0.012112	0.005039	1.735991	0.009642	-0.222584	
43562	27.56	-9.782283	0.380055	0.461673	0.005919	-0.012053	-0.008594	1.735174	0.010740	-0.224630	
43563	27.56	-9.758002	0.392053	0.466583	-0.001857	-0.002268	-0.005147	1.735240	0.009257	-0.222641	
43564	27.56	-9.762852	0.372753	0.461758	-0.002769	-0.012070	-0.001818	1.736213	0.009420	-0.223191	
43565	27.56	-9.748290	0.375102	0.466649	0.007673	0.008349	-0.002267	1.734113	0.008616	-0.222726	
43566	27.56	-9.762837	0.380041	0.456902	-0.008841	-0.002330	0.005992	1.736860	0.011316	-0.223011	
43567	27.56	-9.772541	0.375262	0.452033	-0.001896	-0.012950	-0.003543	1.734587	0.009287	-0.223435	
43568	27.56	-9.767694	0.382471	0.456880	0.008472	-0.007687	0.001024	1.735142	0.009865	-0.222147	
43569	27.56	-9.772565	0.384868	0.461700	-0.013085	-0.002209	-0.007930	1.735315	0.008419	-0.223635	
43570	27.56	-9.782245	0.394648	0.449541	0.006732	-0.011240	0.000958	1.734964	0.008646	-0.223161	
43571	27.56	-9.777384	0.380144	0.447164	0.011106	0.009179	0.003005	1.735870	0.010918	-0.222836	
43572	27.56	-9.738562	0.370275	0.461852	0.004152	-0.005004	0.001841	1.733591	0.006336	-0.222775	
43573	27.56	-9.765305	0.384783	0.471411	0.001594	0.005678	0.000202	1.735875	0.008480	-0.222100	
43574	27.56	-9.767710	0.372765	0.461740	0.005007	0.004717	0.008041	1.735591	0.009030	-0.223114	
43575	27.56	-9.777377	0.380160	0.444743	0.006835	-0.002247	-0.011926	1.736527	0.009348	-0.221550	
43576	27.56	-9.753098	0.365575	0.447280	0.005041	-0.016492	-0.007805	1.734442	0.009309	-0.223943	
43577	27.56	-9.762796	0.382560	0.442372	-0.013132	-0.002273	0.000726	1.733324	0.008529	-0.223780	
43578	27.56	-9.767709	0.375183	0.461735	-0.005326	-0.007584	-0.006136	1.735834	0.010958	-0.223709	
43579	27.56	-9.767710	0.372765	0.461740	0.005083	0.004818	-0.004947	1.734539	0.009085	-0.224560	
43580	27.56	-9.772526	0.380132	0.447182	-0.005365	-0.014722	-0.002755	1.735691	0.010595	-0.224095	
43581	27.56	-9.777389	0.384963	0.449577	-0.007042	-0.004905	-0.006994	1.734337	0.007238	-0.222965	
43582	27.56	-9.777410	0.384913	0.456840	-0.001902	-0.005874	0.000874	1.733405	0.009972	-0.222149	
43583	27.56	-9.774989	0.380054	0.459279	-0.005296	-0.002231	-0.008666	1.737069	0.011364	-0.223991	
43584	27.56	-9.782268	0.384925	0.456822	-0.001908	-0.004111	0.002629	1.732454	0.007752	-0.223598	
43585	27.56	-9.787133	0.384920	0.459225	-0.003580	0.000399	-0.005138	1.735302	0.010609	-0.224497	
43586	27.56	-9.767677	0.372848	0.449634	0.003259	0.001155	0.009701	1.734339	0.008388	-0.223208	
43587	27.56	-9.772541	0.375262	0.452033	0.011963	-0.005889	-0.003226	1.735122	0.009888	-0.222646	
43588	27.56	-9.772595	0.372709	0.471406	0.001596	-0.005833	-0.005998	1.735527	0.009983	-0.221869	
43589	27.56	-9.767667	0.382538	0.447196	-0.000132	-0.004941	-0.005149	1.734110	0.009386	-0.222971	
43590	27.56	-9.757970	0.360717	0.452113	-0.007018	0.004872	-0.006019	1.737158	0.010111	-0.221501	
43591	27.56	-9.767676	0.375267	0.449630	-0.000165	-0.012955	-0.003515	1.734302	0.008813	-0.224205	
43592	27.56	-9.765268	0.370374	0.456911	-0.005381	-0.005885	0.004275	1.734937	0.010582	-0.221287	
43593	27.56	-9.772528	0.372877	0.447195	0.001608	-0.001392	-0.005078	1.736213	0.008012	-0.222824	
43594	27.56	-9.777396	0.384947	0.451998	0.010161	-0.004207	0.009757	1.734752	0.010265	-0.222671	
43595	27.56	-9.782303	0.380005	0.468936	-0.007038	-0.002241	-0.006963	1.735742	0.011560	-0.223091	
43596	27.56	-9.753126	0.384837	0.459351	-0.003641	-0.012961	-0.000977	1.734593	0.009407	-0.223309	
43597	27.56	-9.774978	0.370414	0.454454	-0.000123	-0.008472	-0.008656	1.736790	0.010614	-0.221525	
43598	27.56	-9.765270	0.365537	0.456920	-0.008830	-0.009401	0.000710	1.734380	0.009877	-0.222576	
43599	27.56	-9.762779	0.394684	0.437508	-0.000189	-0.011216	0.001705	1.735873	0.009762	-0.222468	
43600	27.56	-9.762863	0.382392	0.466582	0.003307	0.004764	0.002817	1.736558	0.008688	-0.223667	
43601	27.56	-9.762836	0.382459	0.456898	-0.002817	-0.013020	0.005966	1.734564	0.009057	-0.223936	
43602	27.56	-9.782268	0.384925	0.456822	-0.003566	0.006617	-0.004199	1.736939	0.010586	-0.220892	
43603	27.56	-9.774952	0.389811	0.447156	-0.006202	-0.008484	-0.004424	1.734156	0.009846	-0.221970	
43604	27.50	-9.767419	0.377679	0.466683	0.008538	-0.002321	-0.002333	1.734259	0.009832	-0.221668	
43605	27.50	-9.782018	0.384902	0.476300	-0.005296	-0.001380	-0.003416	1.733717	0.007575	-0.222216	
43606	27.50	-9.782021	0.399395	0.478695	0.004248	-0.001375	-0.008450	1.735363	0.009220	-0.221840	
43607	27.50	-9.772232	0.394719	0.452108	-0.007024	-0.005801	-0.005229	1.737069	0.011067	-0.223075	
43608	27.50	-9.767375	0.389870	0.452135	0.003335	-0.011178	-0.004256	1.735304	0.011461	-0.223824	
43609	27.50	-9.767393	0.375327	0.457003	0.003347	-0.004962	-0.003318	1.736613	0.009225	-0.221624	
43610	27.50	-9.777133	0.384957	0.466634	-0.000041	-0.005741	-0.016371	1.733796	0.008139	-0.223452	
43611	27.50	-9.767393	0.375327	0.457003	0.001574	0.011814	0.012441	1.735822	0.002375	-0.224079	
43612	27.50	-9.767425	0.380080	0.469100	-0.007934	-0.003198	0.003442	1.737045	0.003178	-0.224732	
43613	27.50	-9.767400	0.375311	0.459424	-0.007088	0.003858	0.010469	1.735276	0.001659	-0.225118	
43614	27.50	-9.777133	0.384957	0.466634	0.010287	0.004782	-0.002215	1.734487	0.008323	-0.221783	
43615	27.50	-9.774679	0.380182	0.456967	0.001564	-0.009456	0.003529	1.732453	0.001590	-0.224328	
43616	27.50	-9.794135	0.389835	0.466563	0.012056	0.011910	-0.005560	1.736138	0.010985	-0.221526	
43617	27.50	-9.777161	0.382472	0.476323	0.008538	-0.003207	-0.003207	1.735387	0.008554	-0.221094	
43618	27.50	-9.777136	0.399450	0.469029	-0.001838	-0.000509	-0.002480	1.735481	0.009612	-0.222078	
43619	27.50	-9.767390	0.385000	0.456986	-0.005142	0.012108	-0.022306	1.735039	0.009942	-0.223851	
43620	27.50	-9.764997	0.375238	0.469117	-0.000111	-0.005832	-0.004253	1.731754	0.006773	-0.224479	
43621	27.50	-9.777141	0.380104	0.469064	0.005044	-0.001470	0.003683	1.736010	0.010605	-0.221537	
43622	27.50	-9.767378	0.380197	0.452152	0.006840	-0.002273	-0.007556	1.734470	0.009110	-0.222403	
43623	27.50	-9.767376	0.387452	0.452139	0.004167	-0.001483	0.006266	1.734230	0.011527	-0.222782	
43624	27.50	-9.767378	0.380197	0.452152	0.008514	-0.004125	0.001110	1.737664	0.009952	-0.223411	
43625	27.50	-9.764949	0.380192	0.452161	-0.007071	-0.008520	0.001662	1.736144	0.008434	-0.223777	
43626	27.50	-9.772235	0.385046	0.452126	0.010218	-0.002395	0.006357	1.736490	0.010884	-0.221998	
43627	27.50	-9.762550	0.370446	0.461872	0.003319	-0.007655	0.000111	1.734808	0.008642	-0.223127	
43628	27.50	-9.767404	0.384967	0.461828	-0.001876	-0.007644	0.000894	1.737202	0.009396	-0.222451	
43629	27.50	-9.767404	0.382549	0.461832	-0.003573	-0.004937	-0.003433	1.733874	0.009600	-0.224933	
43630	27.50	-9.777091	0.392312	0.452095	0.001605	-0.007632	-0.002508	1.733835	0.008749	-0.225687	
43631	27.50	-9.772276	0.382527	0.466656	0.001547	-0.011248	0.005238	1.736371	0.009741	-0.224626	
43632	27.50	-9.772275	0.384945	0.466652	-0.000086	0.006598	-0.002369	1.733181	0.008382	-0.223372	
43633	27.56	-9.777422	0.389716	0.461673	-0.005447	-0.022800	0.006675	1.735391	0.009356	-0.222007	
43634	27.56	-9.787154	0.380033	0.466497	0.005923	0.007436	0.000300	1.734368	0.009250	-0.222704	
43635	27.56	-9.782269	0.380088	0.456831	-0.005347	-0.002300	-0.000006	1.735086	0.010825	-0.223765	
43636	27.56	-9.777395	0.387365	0.451993	-0.007040	-0.002245	-0.006095	1.735721	0.009537	-0.223102	
43637	27.56	-9.770125	0.375222	0.456884	0.005020	-0.013864	-0.003439	1.733935	0.008419	-0.223984	
43638	27.56	-9.772533	0.380115	0.449603	-0.001911	-0.009428	0.000830	1.735346	0.008896	-0.223008	
43639	27.56	-9.762795	0.384978	0.442367	-0.000179	-0.007660	0.001745	1.737644	0.009760	-0.224703	
43640	27.56	-9.772561	0.375211	0.459296	-0.000182	-0.016520	-0.002691	1.737875	0.011175	-0.222439	
43641	27.56	-9.765245	0.380097	0.449630	0.006685	-0.012185	0.008734	1.733743	0.009504	-0.222873	
43642	27.56	-9.762869	0.360628	0.466622	-0.014010	-0.012912	-0.002885	1.732986	0.010021	-0.223299	
43643	27.56	-9.777396	0.384947	0.451998	0.007727	0.009299	-0.010906	1.735208	0.011085	-0.223879	
43644	27.56	-9.772500	0.375362	0.437507	0.008536	-0.004063	-0.007590	1.734222	0.008634	-0.223091	
43645	27.56	-9.760410	0.370362	0.456929	0.011925	-0.019221	-0.003390	1.735960	0.009551	-0.223334	
43646	27.56	-9.767681	0.380086	0.452042	0.010172	-0.004191	0.008022	1.733721	0.008377	-0.223129	
43647	27.56	-9.767679	0.389759	0.452025	0.008513	-0.009404	-0.006788	1.735509	0.010644	-0.222490	
43648	27.56	-9.767711	0.370346	0.461744	-0.003617	0.006553	0.004454	1.735500	0.009759	-0.222495	
43649	27.56	-9.767724	0.370313	0.466586	0.010284	-0.004926	-0.011905	1.735206	0.008401	-0.223270	
43650	27.56	-9.772568	0.375195	0.461717	-0.000173	-0.002337	0.002675	1.735723	0.009278	-0.222979	
43651	27.56	-9.762863	0.379974	0.466587	0.010272	-0.005828	-0.010184	1.733944	0.008281	-0.223736	
43652	27.56	-9.767680	0.384923	0.452034	-0.005350	-0.020015	-0.008015	1.735527	0.011392	-0.222236	
43653	27.56	-9.767705	0.392111	0.461705	0.003243	-0.005063	0.008763	1.735453	0.009684	-0.223619	
43654	27.56	-9.779865	0.387270	0.466511	-0.009609	-0.001315	-0.010458	1.734654	0.009850	-0.221934	
43655	27.56	-9.767681	0.380086	0.452042	-0.007034	0.004849	-0.003416	1.736775	0.011143	-0.222022	
43656	27.56	-9.777438	0.380010	0.466533	0.005097	-0.005792	-0.012865	1.734709	0.009546	-0.223549	
43657	27.56	-9.765246	0.377679	0.449635	0.008491	-0.003234	0.000211	1.736217	0.010823	-0.223433	
43658	27.56	-9.767706	0.387274	0.461714	-0.000157	-0.000545	0.000965	1.735467	0.011587	-0.223733	
43659	27.56	-9.767660	0.382555	0.444775	0.000662	-0.003267	0.007875	1.735272	0.009861	-0.222013	
43660	27.56	-9.772544	0.387336	0.454432	0.008477	-0.005911	0.001047	1.734676	0.008816	-0.224177	
43661	27.56	-9.767680	0.384923	0.452034	0.001556	0.005626	0.007130	1.735844	0.009923	-0.223216	
43662	27.56	-9.782265	0.394598	0.456805	-0.000199	-0.004145	0.006122	1.736589	0.012619	-0.223895	
43663	27.56	-9.762811	0.375271	0.447227	0.008494	-0.016514	-0.006877	1.734349	0.008376	-0.222959	
43664	27.56	-9.775007	0.384840	0.466533	0.004285	0.007566	-0.015316	1.734174	0.010082	-0.221594	
43665	27.56	-9.774982	0.380071	0.456858	0.004203	0.004799	-0.002361	1.734466	0.008642	-0.223198	
43666	27.56	-9.784691	0.380111	0.454401	-0.001948	-0.004165	0.009555	1.734424	0.009698	-0.221453	
43667	27.56	-9.777416	0.384896	0.459261	0.008542	-0.005825	-0.010208	1.736612	0.011952	-0.223150	
43668	27.56	-9.782268	0.384925	0.456822	0.005067	0.001252	-0.004118	1.734854	0.008501	-0.222797	
43669	27.56	-9.777411	0.380077	0.456849	0.001529	-0.003267	0.007024	1.736122	0.009764	-0.222449	
43670	27.56	-9.772559	0.382466	0.459283	-0.012225	0.003095	-0.004389	1.734365	0.007463	-0.222340	
43671	27.56	-9.767695	0.380053	0.456884	0.004992	-0.009473	0.003542	1.734736	0.010156	-0.223046	
43672	27.56	-9.757993	0.375159	0.461771	-0.006172	-0.010211	-0.010513	1.734656	0.008568	-0.221566	
43673	27.56	-9.772560	0.380048	0.459288	0.015388	-0.006832	0.002017	1.734357	0.008624	-0.222832	
43674	27.56	-9.777417	0.382478	0.459265	-0.001842	0.001291	-0.005967	1.735707	0.009681	-0.223476	
43675	27.56	-9.772560	0.377630	0.459292	0.004981	-0.005945	0.007048	1.733441	0.007387	-0.223652	
43676	27.56	-9.782284	0.375218	0.461682	0.005118	0.008404	-0.009230	1.736031	0.009982	-0.221708	
43677	27.56	-9.767720	0.387241	0.466556	-0.000222	-0.010371	0.006908	1.735332	0.008528	-0.223260	
43678	27.56	-9.772551	0.384901	0.456858	0.003277	-0.002363	0.004466	1.735118	0.008997	-0.222526	
43679	27.56	-9.772552	0.382483	0.456862	0.000675	-0.008563	0.002616	1.735789	0.010738	-0.221722	
43680	27.56	-9.777412	0.375240	0.456857	-0.008770	-0.002239	-0.006127	1.733218	0.008379	-0.223290	
43681	27.56	-9.772565	0.384868	0.461700	-0.006202	0.003032	0.000908	1.736347	0.011330	-0.223421	
43682	27.56	-9.767718	0.392077	0.466547	-0.007108	-0.004103	0.004271	1.733805	0.009050	-0.221253	
43683	27.56	-9.784679	0.399474	0.451945	-0.001846	-0.002260	-0.006871	1.734085	0.009926	-0.223717	
43684	27.56	-9.782250	0.399468	0.451954	0.014574	-0.006763	-0.006650	1.736853	0.010173	-0.222892	
43685	27.56	-9.762835	0.387296	0.456889	-0.007063	-0.008472	-0.005308	1.735011	0.009503	-0.225270	
43686	27.56	-9.774992	0.392128	0.461678	-0.000209	-0.014784	0.002528	1.736882	0.009500	-0.222022	
43687	27.56	-9.777384	0.380144	0.447164	0.003263	-0.016553	-0.000033	1.734092	0.010047	-0.223592	
43688	27.56	-9.777408	0.392168	0.456827	0.000801	0.009316	-0.010155	1.736252	0.011294	-0.222682	
43689	27.56	-9.767748	0.379919	0.476253	-0.000096	-0.004890	-0.012078	1.735067	0.008543	-0.223652	
43690	27.56	-9.779866	0.384852	0.466515	-0.001985	-0.009526	0.012953	1.735126	0.008619	-0.225266	
43691	27.56	-9.772570	0.365522	0.461735	0.008547	-0.000502	-0.008417	1.736341	0.009289	-0.223058	
43692	27.56	-9.767710	0.372765	0.461740	-0.001861	-0.005818	-0.006057	1.734566	0.008286	-0.223690	
43693	27.56	-9.772580	0.379998	0.466551	0.003349	0.000391	-0.006759	1.735754	0.010779	-0.222596	
43694	27.56	-9.777451	0.379976	0.471375	-0.008818	-0.011157	-0.002771	1.735077	0.007509	-0.223159	
43695	27.56	-9.767707	0.382438	0.461722	0.001567	-0.004100	0.000085	1.735096	0.009791	-0.223271	
43696	27.56	-9.772514	0.375329	0.442349	0.000718	0.000349	0.000125	1.735098	0.008509	-0.222903	
43697	27.56	-9.779841	0.375246	0.456848	-0.012304	-0.008524	0.003265	1.734068	0.008282	-0.223726	
43698	27.56	-9.762838	0.375204	0.456911	0.006753	0.002961	0.004584	1.735350	0.009787	-0.223128	
43699	27.56	-9.777411	0.380077	0.456849	0.011992	0.004777	-0.003096	1.735106	0.008371	-0.222655	
43700	27.56	-9.772535	0.370442	0.449621	0.011948	-0.002366	0.001146	1.736257	0.009754	-0.222191	
43701	27.56	-9.782202	0.380256	0.432620	-0.001901	-0.015618	-0.003571	1.734596	0.008126	-0.222942	
43702	27.56	-9.774968	0.380104	0.452015	-0.003621	-0.002311	0.000887	1.734604	0.007988	-0.222693	
43703	27.56	-9.767668	0.380120	0.447200	0.001565	-0.005877	0.000064	1.735585	0.010444	-0.223606	
43704	27.56	-9.782290	0.399367	0.466480	-0.005384	-0.016519	-0.001040	1.735874	0.010160	-0.225577	
43705	27.56	-9.782254	0.384958	0.451980	-0.012318	-0.006774	0.006752	1.737618	0.009903	-0.222340	
43706	27.56	-9.782285	0.372800	0.461686	0.001597	-0.005834	-0.005996	1.734846	0.007742	-0.222801	
43707	27.56	-9.767730	0.375133	0.468999	-0.003597	-0.002277	-0.003445	1.735301	0.008563	-0.224009	
43708	27.56	-9.782242	0.404321	0.449524	0.006772	0.002983	0.001131	1.737043	0.010370	-0.224371	
43709	27.56	-9.777424	0.382461	0.461686	-0.006217	-0.009388	-0.002705	1.735077	0.008020	-0.223281	
43710	27.56	-9.775007	0.387258	0.466529	0.011031	0.000227	0.010690	1.736404	0.009985	-0.221681	
43711	27.56	-9.782281	0.384891	0.461664	0.001515	-0.007714	0.006972	1.734288	0.009071	-0.221591	
43712	27.56	-9.767685	0.365577	0.452068	-0.003600	-0.005824	-0.004355	1.737245	0.009003	-0.222122	
43713	27.56	-9.767656	0.375317	0.442367	-0.000177	-0.003230	0.003530	1.737266	0.008980	-0.221623	
43714	27.56	-9.772534	0.375278	0.449612	0.001564	0.010063	0.008049	1.734149	0.009996	-0.225206	
43715	27.56	-9.757993	0.375159	0.461771	0.001594	-0.009377	-0.006909	1.736249	0.011938	-0.222928	
43716	27.56	-9.772549	0.394574	0.456840	0.015436	-0.005882	-0.005762	1.733986	0.008874	-0.222858	
43717	27.56	-9.762816	0.380091	0.449639	-0.001882	-0.001418	0.000058	1.737454	0.010074	-0.223347	
43718	27.56	-9.782237	0.399501	0.447112	-0.010571	-0.020041	-0.002900	1.734958	0.009548	-0.223531	
43719	27.56	-9.765266	0.380047	0.456893	0.005008	-0.007681	0.001831	1.735339	0.009287	-0.223256	
43720	27.56	-9.757980	0.375193	0.456929	-0.003590	-0.002266	-0.004313	1.736501	0.008738	-0.222053	
43721	27.56	-9.767695	0.380053	0.456884	0.003336	-0.004941	-0.006824	1.736736	0.009396	-0.222531	
43722	27.56	-9.772553	0.380065	0.456867	-0.005371	-0.016501	-0.002777	1.736855	0.010811	-0.223013	
43723	27.56	-9.777414	0.370404	0.456866	-0.000167	0.001212	0.003584	1.736320	0.007777	-0.223191	
43724	27.56	-9.782266	0.389761	0.456813	0.001536	-0.013000	0.000849	1.735390	0.008718	-0.221885	
43725	27.56	-9.774979	0.389744	0.456840	0.006805	0.002143	-0.004945	1.733387	0.007690	-0.222036	
43726	27.56	-9.772596	0.370291	0.471410	0.006704	-0.002417	0.009716	1.735616	0.009001	-0.222490	
43727	27.56	-9.777419	0.375223	0.459278	0.005823	-0.012179	0.007855	1.737495	0.012971	-0.223081	
43728	27.56	-9.772580	0.379998	0.466551	0.004270	0.009318	-0.011832	1.733316	0.008282	-0.223906	
43729	27.56	-9.772568	0.375195	0.461717	-0.002757	-0.016484	-0.006198	1.735515	0.009230	-0.221998	
43730	27.56	-9.762838	0.375204	0.456911	0.020565	-0.020149	-0.002389	1.734486	0.007084	-0.222333	
43731	27.56	-9.772508	0.394675	0.442314	0.007626	-0.008547	-0.002460	1.736750	0.010787	-0.222523	
43732	27.56	-9.765301	0.375127	0.469008	0.010185	-0.009485	0.002761	1.735537	0.008949	-0.221376	
43733	27.56	-9.777434	0.394519	0.466507	-0.005381	-0.006772	0.003404	1.734973	0.009019	-0.223035	
43734	27.56	-9.787143	0.370394	0.461672	0.014466	-0.008677	0.010641	1.734974	0.010043	-0.223279	
43735	27.56	-9.767750	0.372664	0.476266	0.010285	-0.000496	-0.010120	1.734265	0.010135	-0.225446	
43736	27.56	-9.767714	0.382421	0.464143	0.006751	-0.004126	0.001037	1.736426	0.010088	-0.221181	
43737	27.56	-9.782276	0.380072	0.459252	0.001580	-0.006743	-0.003407	1.734188	0.008801	-0.223964	
43738	27.56	-9.774981	0.384907	0.456849	-0.000254	-0.020158	0.007658	1.734274	0.005249	-0.220988	
43739	27.56	-9.770122	0.384895	0.456867	0.011946	-0.004138	0.000260	1.734747	0.010270	-0.222796	
43740	27.56	-9.772584	0.389654	0.468955	0.003285	-0.016521	-0.004363	1.733454	0.007628	-0.223401	
43741	27.56	-9.772559	0.382466	0.459283	0.003183	-0.008687	0.017378	1.737355	0.010556	-0.222854	
43742	27.56	-9.770108	0.389765	0.452016	0.018014	-0.013884	-0.006682	1.734138	0.008587	-0.222102	
43743	27.56	-9.772552	0.382483	0.456862	-0.002729	-0.003162	-0.004304	1.735342	0.009540	-0.223254	
43744	27.56	-9.777388	0.389800	0.449568	0.012084	-0.000415	-0.021340	1.735818	0.008929	-0.223596	
43745	27.56	-9.772578	0.384834	0.466542	-0.001835	-0.019067	-0.017470	1.733337	0.007874	-0.223284	
43746	27.56	-9.772568	0.375195	0.461717	-0.008781	-0.005794	-0.006171	1.735577	0.011605	-0.224099	
43747	27.56	-9.765266	0.380047	0.456893	0.006681	-0.023702	0.003399	1.733144	0.009103	-0.225284	
43748	27.56	-9.767683	0.375250	0.452051	0.011029	-0.005090	0.008891	1.735713	0.009801	-0.223350	
43749	27.56	-9.772522	0.370475	0.444778	0.001583	-0.010282	-0.005185	1.733974	0.009270	-0.223231	
43750	27.56	-9.767668	0.380120	0.447200	-0.001849	-0.005803	-0.007786	1.735967	0.009798	-0.223207	
43751	27.56	-9.782250	0.375302	0.449576	-0.002784	-0.012094	0.000785	1.735806	0.010734	-0.224335	
43752	27.56	-9.767681	0.380086	0.452042	-0.019193	-0.000488	0.002378	1.733429	0.008680	-0.224269	
43753	27.56	-9.762820	0.392166	0.452038	-0.000163	-0.001439	0.001821	1.735635	0.009364	-0.222113	
43754	27.56	-9.775007	0.384840	0.466533	-0.003664	-0.016536	0.000716	1.732321	0.009935	-0.224344	
43755	27.56	-9.777383	0.382562	0.447160	0.010314	-0.012861	-0.020654	1.733831	0.008907	-0.223616	
43756	27.56	-9.791996	0.389752	0.461620	0.011995	-0.002305	-0.007506	1.735250	0.009757	-0.222513	
43757	27.56	-9.777443	0.384829	0.468945	0.008482	-0.005017	0.000192	1.735032	0.008072	-0.224404	
43758	27.56	-9.767722	0.379986	0.466569	-0.008847	-0.011195	0.002423	1.736201	0.011737	-0.224052	
43759	27.56	-9.782254	0.384958	0.451980	-0.001826	-0.009316	-0.013886	1.733162	0.008442	-0.224663	
43760	27.56	-9.760407	0.380035	0.456911	-0.000166	-0.004098	0.000920	1.734484	0.008878	-0.222822	
43761	27.56	-9.767668	0.380120	0.447200	-0.002826	-0.020118	0.004150	1.734327	0.009681	-0.223825	
43762	27.56	-9.760371	0.365626	0.442411	-0.000194	-0.004137	0.006114	1.734389	0.008330	-0.221960	
43763	27.56	-9.777410	0.384913	0.456840	0.004205	0.005688	-0.002349	1.735827	0.010711	-0.223836	
43764	27.56	-9.767711	0.370346	0.461744	-0.003601	-0.002283	-0.002580	1.732789	0.008951	-0.224812	
43765	27.56	-9.767662	0.375300	0.444788	-0.007030	0.012824	0.000143	1.735575	0.009433	-0.223611	
43766	27.56	-9.782248	0.384975	0.449559	-0.012295	-0.011171	0.000638	1.733978	0.008626	-0.222985	
43767	27.56	-9.784679	0.375308	0.449567	0.007681	0.000381	-0.007549	1.734347	0.009658	-0.223326	
43768	27.56	-9.762818	0.375255	0.449648	-0.001844	0.006603	-0.002444	1.734477	0.008245	-0.222825	
43769	27.56	-9.762839	0.370368	0.456920	-0.001873	-0.004947	-0.003450	1.734286	0.009841	-0.221836	
43770	27.56	-9.770157	0.379975	0.468981	0.005031	-0.000565	0.001051	1.736041	0.010993	-0.221703	
43771	27.56	-9.772610	0.392005	0.478635	-0.007100	-0.009406	-0.000122	1.733205	0.008649	-0.223663	
43772	27.56	-9.767703	0.372781	0.459319	0.008467	-0.005923	0.002775	1.735343	0.009155	-0.223131	
43773	27.56	-9.762837	0.380041	0.456902	0.022247	-0.017562	0.007197	1.735600	0.008892	-0.222865	
43774	27.56	-9.760413	0.360689	0.456946	0.005916	-0.006739	-0.005075	1.735206	0.009935	-0.223636	
43775	27.56	-9.767642	0.375350	0.437524	-0.008797	-0.014674	-0.007143	1.736546	0.011004	-0.224529	
43776	27.56	-9.762842	0.360695	0.456937	0.006753	-0.011208	-0.002516	1.733710	0.009285	-0.223623	
43777	27.56	-9.767674	0.382521	0.449617	-0.001903	-0.015616	-0.003574	1.738045	0.011907	-0.224539	
43778	27.56	-9.757996	0.365486	0.461789	0.003283	-0.007666	0.000932	1.735680	0.009583	-0.224101	
43779	27.50	-9.757650	0.375371	0.447355	-0.001853	-0.002300	0.000089	1.734776	0.009061	-0.223999	
43780	27.50	-9.762526	0.360840	0.452205	0.010245	-0.000587	0.002909	1.735242	0.007439	-0.224346	
43781	27.50	-9.762560	0.382503	0.466692	0.003366	-0.001392	-0.005007	1.734380	0.009340	-0.224649	
43782	27.50	-9.777120	0.384991	0.461792	0.003338	-0.009403	-0.004234	1.736225	0.008854	-0.221903	
43783	27.50	-9.767359	0.377829	0.444893	0.003352	-0.004072	-0.003306	1.733936	0.008635	-0.223191	
43784	27.50	-9.801467	0.351077	0.478711	-0.009651	-0.012036	-0.003618	1.734891	0.011631	-0.224849	
43785	27.50	-9.772220	0.389916	0.447275	-0.000188	-0.010365	0.006954	1.734308	0.007488	-0.222920	
43786	27.50	-9.772208	0.385113	0.442441	-0.007002	0.013711	0.001066	1.734981	0.010378	-0.222360	
43787	27.50	-9.781964	0.387454	0.456927	0.004262	0.007497	-0.005746	1.735318	0.010806	-0.223329	
43788	27.50	-9.767390	0.387419	0.456981	-0.007029	-0.002264	-0.002591	1.735019	0.009965	-0.224350	
43789	27.50	-9.784392	0.389879	0.456914	-0.000129	-0.003203	0.000115	1.734716	0.009882	-0.222630	
43790	27.50	-9.781964	0.387454	0.456927	-0.006157	-0.008460	-0.006978	1.734347	0.007316	-0.221923	
43791	27.50	-9.777139	0.387359	0.469051	-0.013915	-0.005738	-0.010541	1.734364	0.009471	-0.222036	
43792	27.50	-9.777135	0.380121	0.466643	0.004935	-0.016670	0.014757	1.735315	0.009019	-0.222964	
43793	27.50	-9.781966	0.380200	0.456941	0.006750	-0.017451	0.000058	1.734442	0.008374	-0.222906	
43794	27.50	-9.772201	0.385130	0.440020	-0.013981	-0.004057	0.002468	1.736273	0.010463	-0.221145	
43795	27.50	-9.747934	0.375347	0.447390	0.004200	-0.019149	-0.007807	1.734304	0.007621	-0.223044	
43796	27.50	-9.764933	0.389898	0.447302	-0.003609	-0.016499	-0.002704	1.734766	0.009698	-0.221383	
43797	27.50	-9.762528	0.399498	0.456977	-0.001868	-0.017375	-0.005283	1.734295	0.008270	-0.223415	
43798	27.50	-9.762535	0.375316	0.457021	0.011086	-0.013905	0.000168	1.735218	0.009754	-0.222470	
43799	27.50	-9.769834	0.380136	0.461828	0.001690	-0.000431	-0.013682	1.735320	0.010036	-0.223083	
43800	27.50	-9.767361	0.370575	0.444906	-0.009598	0.000434	-0.005202	1.735254	0.010111	-0.224706	
43801	27.50	-9.764976	0.380125	0.461845	0.003377	-0.001379	-0.006738	1.737818	0.010303	-0.222775	
43802	27.50	-9.767417	0.384933	0.466670	-0.001872	-0.005867	0.000915	1.735531	0.008291	-0.223574	
43803	27.50	-9.772283	0.380092	0.469082	-0.015619	0.006702	-0.008691	1.734138	0.009699	-0.221553	
43804	27.50	-9.774677	0.385018	0.456959	0.008513	-0.004127	0.001112	1.735174	0.010714	-0.226824	
43805	27.50	-9.762535	0.375316	0.457021	0.010180	0.003756	0.015952	1.733634	0.008437	-0.224458	
43806	27.50	-9.772279	0.372854	0.466674	-0.000111	0.008336	0.002846	1.736963	0.010406	-0.222464	
43807	27.50	-9.781949	0.392324	0.452077	-0.006182	-0.001409	0.000902	1.733480	0.008597	-0.225215	
43808	27.50	-9.772238	0.375373	0.452143	-0.007008	-0.002238	-0.006055	1.734257	0.010488	-0.224901	
43809	27.50	-9.757678	0.370467	0.457048	0.001679	-0.001330	-0.011965	1.734254	0.008189	-0.224414	
43810	27.50	-9.772248	0.385012	0.456968	-0.010463	-0.003990	-0.007865	1.735050	0.009034	-0.223357	
43811	27.50	-9.772275	0.384945	0.466652	-0.005286	0.001290	-0.003385	1.735927	0.010955	-0.223657	
43812	27.50	-9.769807	0.380203	0.452143	0.012060	0.001290	-0.010889	1.733538	0.007252	-0.223475	
43813	27.50	-9.781953	0.380233	0.452098	0.010215	0.002027	0.009009	1.735719	0.008988	-0.222188	
43814	27.50	-9.762515	0.375366	0.449758	-0.003578	-0.005830	-0.002579	1.733755	0.009322	-0.221707	
43815	27.50	-9.762518	0.387440	0.452157	-0.001818	-0.000483	-0.005081	1.734782	0.010830	-0.221252	
43816	27.50	-9.767370	0.385051	0.449722	0.003346	-0.007622	-0.004214	1.734682	0.009026	-0.223259	
43817	27.50	-9.767351	0.380264	0.442468	0.000747	0.001238	0.001045	1.733394	0.008809	-0.224350	
43818	27.50	-9.772303	0.380042	0.476345	-0.001884	-0.002340	0.004421	1.735917	0.010070	-0.223662	
43819	27.50	-9.784341	0.380339	0.437563	0.006674	-0.009583	0.017472	1.735713	0.007971	-0.222069	
43820	27.50	-9.767377	0.382616	0.452148	0.005090	-0.009379	-0.007670	1.736539	0.009678	-0.220507	
43821	27.50	-9.772263	0.380142	0.461819	0.008474	-0.008606	0.005386	1.734918	0.008275	-0.223370	
43822	27.50	-9.777105	0.389861	0.456941	-0.001886	-0.011202	0.000854	1.734913	0.008792	-0.223617	
43823	27.50	-9.762523	0.370513	0.452187	0.006775	-0.009444	0.000148	1.735667	0.012372	-0.224291	
43824	27.50	-9.774711	0.384935	0.469064	-0.001867	-0.007633	-0.000837	1.732600	0.008728	-0.225528	
43825	27.50	-9.786800	0.394771	0.449633	-0.003623	0.002076	0.008782	1.736381	0.009729	-0.224376	
43826	27.50	-9.767392	0.380164	0.456994	0.003401	-0.002234	-0.011077	1.734206	0.007206	-0.222307	
43827	27.50	-9.762491	0.387507	0.442473	0.001643	-0.000495	-0.005023	1.734938	0.010683	-0.223481	
43828	27.50	-9.767378	0.380197	0.452152	-0.005298	-0.002270	-0.002563	1.735453	0.008365	-0.222459	
43829	27.50	-9.772232	0.394719	0.452108	-0.001847	-0.010265	-0.005196	1.734772	0.009193	-0.224123	
43830	27.50	-9.767377	0.382616	0.452148	0.000687	-0.020981	-0.000089	1.736499	0.010235	-0.221627	
43831	27.50	-9.767394	0.370491	0.457012	0.007682	-0.003192	-0.004091	1.734183	0.009407	-0.223418	
43832	27.50	-9.762559	0.384922	0.466688	0.001527	-0.013044	0.007813	1.734970	0.009367	-0.222365	
43833	27.50	-9.767424	0.360751	0.466713	0.008515	0.002077	0.003778	1.734949	0.007344	-0.222376	
43834	27.50	-9.764949	0.380192	0.452161	-0.000190	-0.009481	0.007827	1.733491	0.009608	-0.225210	
43835	27.50	-9.777121	0.380154	0.461801	0.006772	-0.002364	0.003701	1.735908	0.009697	-0.223789	
43836	27.50	-9.781963	0.389873	0.456923	-0.001846	0.010105	0.004575	1.734678	0.008646	-0.223261	
43837	27.56	-9.755536	0.380057	0.452087	-0.001938	-0.003262	0.008694	1.736603	0.010556	-0.223033	
43838	27.56	-9.765255	0.370407	0.452069	0.003243	-0.007721	0.007862	1.735224	0.009148	-0.223016	
43839	27.56	-9.760362	0.375316	0.439972	0.001597	-0.002291	-0.003358	1.734101	0.010421	-0.223465	
43840	27.56	-9.765241	0.370441	0.447226	0.001590	-0.005842	-0.004267	1.734692	0.008925	-0.223802	
43841	27.56	-9.757941	0.370457	0.442411	0.003319	-0.001421	-0.001589	1.733777	0.008200	-0.224744	
43842	27.56	-9.772549	0.370408	0.454463	0.000803	0.002234	-0.013708	1.735146	0.010245	-0.222145	
43843	27.56	-9.765266	0.380047	0.456893	-0.005346	-0.016466	-0.007108	1.733140	0.008964	-0.222297	
43844	27.56	-9.782242	0.380155	0.447146	-0.000156	-0.018259	-0.007904	1.736337	0.009933	-0.223304	
43845	27.56	-9.782265	0.394598	0.456805	-0.002768	-0.005873	0.000863	1.735676	0.007157	-0.223615	
43846	27.56	-9.757978	0.380029	0.456920	0.011978	-0.002323	-0.004051	1.735499	0.010656	-0.222740	
43847	27.56	-9.762839	0.370368	0.456920	-0.006243	-0.012077	0.000722	1.736096	0.011713	-0.223562	
43848	27.56	-9.772553	0.380065	0.456867	-0.008699	0.001399	-0.016474	1.734772	0.008978	-0.224917	
43849	27.56	-9.784724	0.384864	0.466497	0.003354	0.002166	-0.006734	1.735243	0.009510	-0.222639	
43850	27.56	-9.796884	0.380024	0.471303	0.006840	-0.007555	-0.016316	1.733546	0.008945	-0.224508	
43851	27.56	-9.787200	0.360587	0.481058	-0.005305	-0.011098	-0.012239	1.736380	0.002479	-0.223461	
43852	27.56	-9.777384	0.404309	0.449542	-0.003621	-0.009397	-0.002657	1.733978	0.002500	-0.224507	
43853	27.56	-9.772527	0.399461	0.449568	-0.001878	0.000357	0.000085	1.733520	0.001313	-0.226289	
43854	27.56	-9.767680	0.384923	0.452034	0.011131	-0.019125	-0.015522	1.736240	0.000846	-0.226466	
43855	27.56	-9.782267	0.387343	0.456818	-0.005367	-0.009412	-0.000091	1.732725	0.005938	-0.222591	
43856	27.56	-9.777436	0.384846	0.466524	-0.012242	-0.002241	-0.004452	1.736285	0.011001	-0.221809	
43857	27.56	-9.777416	0.384896	0.459261	0.015458	0.000346	-0.006554	1.734636	0.010511	-0.222554	
43858	27.56	-9.782239	0.392247	0.447125	-0.013999	0.001267	0.002492	1.733715	0.009791	-0.223621	
43859	27.56	-9.782253	0.389795	0.451971	-0.003642	0.006516	0.008790	1.736239	0.009006	-0.222444	
43860	27.56	-9.772541	0.375262	0.452033	-0.002753	0.000347	0.001798	1.733906	0.002183	-0.223145	
43861	27.56	-9.772532	0.382533	0.449599	0.012026	0.002166	-0.010055	1.736106	0.009655	-0.222824	
43862	27.56	-9.767708	0.380019	0.461727	-0.002770	-0.015614	-0.003590	1.734106	0.009007	-0.222973	
43863	27.56	-9.782274	0.384908	0.459243	-0.001944	0.006469	0.014012	1.734850	0.009145	-0.223043	
43864	27.56	-9.782250	0.375302	0.449576	0.010172	-0.011279	0.004476	1.736243	0.010409	-0.222686	
43865	27.56	-9.760413	0.384855	0.459324	0.011061	-0.005931	0.002819	1.735475	0.007868	-0.222630	
43866	27.56	-9.777439	0.375173	0.466542	0.010174	-0.016587	0.000946	1.736279	0.010880	-0.221935	
43867	27.56	-9.762810	0.380108	0.447218	-0.000992	-0.004930	-0.006030	1.734696	0.009305	-0.223800	
43868	27.56	-9.774971	0.370431	0.452033	-0.009647	-0.008451	-0.007083	1.735237	0.010924	-0.223131	
43869	27.56	-9.777398	0.380110	0.452006	-0.001807	0.000450	-0.012039	1.735683	0.009836	-0.224099	
43870	27.56	-9.777375	0.389833	0.444726	-0.008850	0.004739	0.011279	1.736227	0.010300	-0.223062	
43871	27.56	-9.782293	0.389694	0.466498	-0.002726	0.009239	0.001043	1.736124	0.010914	-0.222693	
43872	27.56	-9.767680	0.384923	0.452034	0.005089	-0.002260	-0.009359	1.734324	0.008405	-0.223583	
43873	27.56	-9.767677	0.370430	0.449639	0.006761	0.000314	0.001956	1.736542	0.011136	-0.224653	
43874	27.56	-9.767697	0.372798	0.456898	0.006788	-0.002306	-0.004137	1.733768	0.007826	-0.224871	
43875	27.56	-9.774999	0.389693	0.464103	0.006735	-0.000606	0.005412	1.734724	0.009017	-0.223053	
43876	27.56	-9.765274	0.372775	0.459328	0.003303	0.006529	0.004569	1.734719	0.008512	-0.223056	
43877	27.56	-9.765252	0.380080	0.452051	0.005011	-0.017419	-0.003481	1.735581	0.008530	-0.223242	
43878	27.56	-9.772555	0.372810	0.456880	0.005002	-0.000604	0.006246	1.736146	0.009609	-0.221826	
43879	27.56	-9.777467	0.372688	0.476230	0.001595	-0.011148	-0.008659	1.735188	0.009700	-0.224011	
43880	27.56	-9.767720	0.384822	0.466560	0.006796	-0.009379	-0.009416	1.735588	0.010186	-0.223482	
43881	27.56	-9.762824	0.375238	0.452069	0.008491	0.000309	0.001984	1.734593	0.007873	-0.222943	
43882	27.56	-9.767724	0.370313	0.466586	-0.005357	-0.000539	0.002607	1.736039	0.009092	-0.224326	
43883	27.56	-9.765268	0.370374	0.456911	-0.005386	0.001193	0.008689	1.736313	0.010600	-0.224050	
43884	27.56	-9.767654	0.380153	0.442358	0.010173	-0.011275	0.004474	1.735317	0.009568	-0.223878	
43885	27.56	-9.787114	0.380134	0.451971	0.006795	0.002127	-0.003212	1.737406	0.009987	-0.221483	
43886	27.56	-9.770104	0.380109	0.449612	0.000722	-0.008501	-0.005177	1.734482	0.008240	-0.222701	
43887	27.56	-9.767681	0.380086	0.452042	0.003268	-0.000603	0.007083	1.736258	0.009880	-0.222190	
43888	27.56	-9.772570	0.365522	0.461735	-0.002790	-0.005014	0.005195	1.736080	0.008149	-0.223083	
43889	27.56	-9.760451	0.370262	0.471455	-0.005355	-0.004963	-0.000046	1.734206	0.009036	-0.223588	
43890	27.56	-9.767722	0.379986	0.466569	-0.005368	-0.007638	0.000792	1.734837	0.010552	-0.220672	
43891	27.56	-9.774982	0.380071	0.456858	0.004165	-0.008535	-0.002521	1.733694	0.007768	-0.223632	
43892	27.56	-9.762822	0.384911	0.452052	-0.007054	-0.004033	-0.004389	1.735531	0.009340	-0.221623	
43893	27.56	-9.765254	0.375244	0.452060	-0.001959	-0.010376	0.008609	1.734233	0.007726	-0.222597	
43894	27.56	-9.767689	0.375233	0.454472	-0.003641	-0.005878	0.002574	1.735909	0.010119	-0.224704	
43895	27.56	-9.777396	0.384947	0.451998	-0.003652	-0.000581	0.006971	1.735669	0.009980	-0.224473	
43896	27.56	-9.774990	0.375217	0.459287	0.000690	-0.005001	0.001792	1.735384	0.010914	-0.225610	
43897	27.56	-9.777416	0.384896	0.459261	0.008473	-0.005030	0.001924	1.736829	0.009816	-0.223393	
43898	27.56	-9.770164	0.379958	0.471402	0.003306	-0.005866	-0.002505	1.735090	0.009796	-0.223396	
43899	27.56	-9.772554	0.375228	0.456875	0.005033	-0.012963	-0.005159	1.734488	0.009768	-0.222942	
43900	27.56	-9.774982	0.380071	0.456858	-0.003581	-0.012885	-0.011363	1.734534	0.010626	-0.225051	
43901	27.56	-9.770100	0.370453	0.447209	0.004210	0.003037	-0.004116	1.736190	0.009702	-0.223814	
43902	27.56	-9.755527	0.365581	0.447271	-0.003649	0.004740	0.009625	1.737887	0.009882	-0.221822	
43903	27.56	-9.775022	0.379970	0.471384	-0.000063	0.013751	-0.008388	1.734601	0.008631	-0.222939	
43904	27.56	-9.774993	0.389710	0.461682	0.008526	-0.009387	-0.009385	1.734510	0.010781	-0.225674	
43905	27.56	-9.772541	0.375262	0.452033	0.011940	0.000280	0.003776	1.732795	0.008560	-0.224565	
43906	27.56	-9.762833	0.370385	0.454499	0.006769	-0.005874	-0.002450	1.734844	0.010559	-0.223535	
43907	27.56	-9.772555	0.372810	0.456880	-0.010525	0.004820	0.001721	1.735978	0.010298	-0.223080	
43908	27.56	-9.767666	0.384956	0.447191	0.001534	-0.014773	0.000824	1.735045	0.009337	-0.224397	
43909	27.56	-9.765244	0.384934	0.449621	0.003368	0.012813	-0.003146	1.735580	0.009156	-0.220376	
43910	27.56	-9.777411	0.380077	0.456849	0.000619	-0.005096	0.013915	1.734234	0.007341	-0.222474	
43911	27.56	-9.774982	0.380071	0.456858	0.004971	-0.002417	0.010556	1.735522	0.009478	-0.221872	
43912	27.56	-9.774954	0.382556	0.447169	0.003243	-0.014808	0.004317	1.735985	0.010033	-0.222831	
43913	27.56	-9.767695	0.380053	0.456884	0.010179	-0.006838	0.005392	1.734984	0.010543	-0.223151	
43914	27.56	-9.775011	0.370331	0.466559	-0.000138	-0.004062	-0.004274	1.735498	0.009121	-0.222373	
43915	27.56	-9.772553	0.380065	0.456867	0.003293	-0.002342	0.001868	1.733481	0.007726	-0.222776	
43916	27.56	-9.784671	0.382580	0.447133	-0.000227	-0.014812	0.005993	1.734474	0.009401	-0.223194	
43917	27.56	-9.762837	0.377623	0.456907	-0.000204	-0.005035	0.006970	1.735963	0.008907	-0.223087	
43918	27.56	-9.765292	0.379980	0.466578	0.011971	-0.004104	-0.004072	1.735008	0.009364	-0.222284	
43919	27.56	-9.775009	0.380004	0.466542	-0.000174	-0.007652	0.000014	1.733752	0.009877	-0.222746	
43920	27.56	-9.757961	0.370406	0.449674	-0.005420	-0.009479	0.009426	1.733418	0.009588	-0.224763	
43921	27.56	-9.777411	0.380077	0.456849	-0.002838	-0.002423	0.014755	1.735748	0.009250	-0.222355	
43922	27.56	-9.772510	0.387420	0.442327	0.008489	-0.012981	-0.004232	1.732955	0.009032	-0.223804	
43923	27.56	-9.774982	0.380071	0.456858	0.004094	-0.005087	0.011375	1.734400	0.011148	-0.225431	
43924	27.50	-9.762523	0.370513	0.452187	0.011071	-0.012154	0.003652	1.735292	0.009812	-0.223709	
43925	27.50	-9.784407	0.385009	0.461765	-0.000165	-0.008564	0.003513	1.733341	0.009365	-0.222733	
43926	27.50	-9.777105	0.389861	0.456941	0.004191	-0.019165	-0.006933	1.735351	0.010513	-0.222457	
43927	27.50	-9.767390	0.385000	0.456986	-0.003559	-0.007577	-0.006927	1.734756	0.010107	-0.224742	
43928	27.50	-9.760072	0.375393	0.444924	-0.010542	-0.000551	0.007759	1.735297	0.009806	-0.223584	
43929	27.50	-9.767365	0.380231	0.447310	-0.007045	-0.003172	-0.000005	1.736987	0.009114	-0.224584	
43930	27.50	-9.772220	0.365750	0.444897	0.005102	-0.002280	-0.005854	1.735753	0.007684	-0.224059	
43931	27.50	-9.767365	0.380231	0.447310	-0.003532	0.004856	-0.005046	1.735455	0.010537	-0.222947	
43932	27.50	-9.772248	0.385012	0.456968	0.003359	-0.005832	-0.005923	1.734395	0.007788	-0.223908	
43933	27.50	-9.777106	0.385024	0.456950	-0.010542	-0.004982	0.005113	1.735198	0.009265	-0.222847	
43934	27.50	-9.772260	0.392234	0.461797	-0.009744	-0.006843	0.015496	1.734161	0.009303	-0.223918	
43935	27.50	-9.762562	0.375249	0.466705	0.012018	0.003008	-0.003079	1.734718	0.011031	-0.222873	
43936	27.50	-9.772247	0.389849	0.456959	-0.007070	-0.009404	0.000788	1.734431	0.008386	-0.223156	
43937	27.50	-9.777088	0.380238	0.449695	0.003317	0.002081	0.005430	1.733199	0.008617	-0.222996	
43938	27.50	-9.774664	0.385052	0.452117	-0.000140	-0.002331	0.002721	1.735707	0.009896	-0.222682	
43939	27.50	-9.791653	0.389963	0.447203	-0.006978	-0.003973	-0.012130	1.734279	0.008161	-0.223790	
43940	27.50	-9.784421	0.384975	0.466607	-0.002700	-0.008474	-0.006920	1.735677	0.009930	-0.223431	
43941	27.50	-9.772255	0.384996	0.459389	-0.008731	-0.001337	-0.006938	1.734071	0.008624	-0.222932	
43942	27.50	-9.767404	0.384967	0.461828	0.001655	-0.004020	-0.009395	1.734073	0.008877	-0.222931	
43943	27.50	-9.777057	0.370649	0.437607	0.004179	-0.005012	0.002760	1.735304	0.009927	-0.223458	
43944	27.50	-9.769811	0.365694	0.452169	0.008545	-0.000542	-0.002312	1.733662	0.009684	-0.224077	
43945	27.50	-9.772287	0.389748	0.471485	0.000762	-0.002282	-0.004192	1.735118	0.010109	-0.221978	
43946	27.50	-9.767391	0.382582	0.456990	0.007651	-0.005005	0.000219	1.734411	0.008920	-0.223777	
43947	27.50	-9.777065	0.387543	0.442419	-0.000154	-0.012978	-0.000003	1.734475	0.010127	-0.222522	
43948	27.50	-9.786793	0.394788	0.447212	0.006799	-0.012960	-0.005945	1.735717	0.010781	-0.222677	
43949	27.50	-9.772221	0.385079	0.447283	0.003384	0.014568	0.000384	1.734124	0.008706	-0.224670	
43950	27.50	-9.767390	0.385000	0.456986	-0.001855	-0.000532	0.000980	1.736819	0.010825	-0.226081	
43951	27.50	-9.764975	0.384961	0.461837	-0.000156	-0.002350	0.005316	1.732669	0.008521	-0.223782	
43952	27.50	-9.762532	0.384989	0.457004	-0.000145	-0.000564	0.004471	1.735148	0.010346	-0.224339	
43953	27.56	-9.772565	0.384868	0.461700	0.001564	-0.001448	0.001850	1.735121	0.009762	-0.222647	
43954	27.56	-9.772568	0.372776	0.461722	-0.001857	-0.000499	-0.004260	1.735398	0.009477	-0.221881	
43955	27.56	-9.772562	0.394541	0.461683	-0.003592	-0.004042	-0.005194	1.736744	0.009643	-0.222405	
43956	27.56	-9.775007	0.384840	0.466533	0.005005	-0.002371	0.004495	1.735561	0.009576	-0.223985	
43957	27.56	-9.772542	0.370425	0.452042	-0.013139	-0.007596	-0.001070	1.737361	0.011062	-0.222851	
43958	27.56	-9.767713	0.363092	0.461757	0.011941	-0.004144	0.001121	1.735942	0.009315	-0.223709	
43959	27.56	-9.777395	0.389783	0.451989	-0.007142	-0.007694	0.008560	1.735152	0.010125	-0.225008	
43960	27.56	-9.770122	0.384895	0.456867	0.008497	-0.012968	-0.005966	1.735360	0.009150	-0.225744	
43961	27.56	-9.767722	0.379986	0.466569	-0.005304	-0.001355	-0.006926	1.735023	0.009233	-0.224897	
43962	27.56	-9.784697	0.382513	0.456817	-0.005357	-0.000543	0.002614	1.736108	0.009908	-0.222823	
43963	27.56	-9.767695	0.380053	0.456884	0.005007	-0.000597	0.005380	1.734611	0.008108	-0.222567	
43964	27.56	-9.777380	0.394653	0.447138	0.001528	-0.002384	0.007904	1.735185	0.009561	-0.221025	
43965	27.56	-9.757990	0.384832	0.461754	-0.003593	-0.001385	-0.003435	1.734252	0.008600	-0.222342	
43966	27.56	-9.767703	0.375200	0.459314	0.005063	0.003020	-0.002370	1.736751	0.008867	-0.222034	
43967	27.56	-9.748268	0.360659	0.456991	-0.007119	-0.004117	0.006859	1.736241	0.010156	-0.222688	
43968	27.56	-9.767708	0.380019	0.461727	0.005945	-0.006702	-0.010265	1.734791	0.009852	-0.224662	
43969	27.56	-9.772554	0.375228	0.456875	0.005015	-0.001473	0.003638	1.737032	0.011278	-0.224865	
43970	27.56	-9.755536	0.380057	0.452087	0.006830	-0.005792	-0.012840	1.734555	0.008171	-0.223940	
43971	27.56	-9.765254	0.375244	0.452060	-0.004406	0.000456	-0.011220	1.736363	0.010416	-0.222802	
43972	27.56	-9.770148	0.389665	0.466542	0.008424	-0.013063	0.006156	1.734504	0.009366	-0.222445	
43973	27.56	-9.777398	0.380110	0.452006	-0.005287	-0.003107	-0.010408	1.736281	0.009484	-0.224555	
43974	27.56	-9.774983	0.375234	0.456866	0.004190	-0.004959	-0.005077	1.734524	0.009343	-0.221945	
43975	27.56	-9.782226	0.389862	0.442287	-0.005365	0.001216	0.005234	1.733754	0.008084	-0.222257	
43976	27.56	-9.782239	0.389828	0.447129	0.004100	-0.019252	0.003415	1.735399	0.010626	-0.222125	
43977	27.56	-9.765272	0.380030	0.459315	0.004944	-0.015736	0.008661	1.735885	0.010389	-0.222339	
43978	27.56	-9.772523	0.392223	0.447160	-0.001840	-0.002249	-0.007740	1.734404	0.009721	-0.221952	
43979	27.56	-9.767707	0.384856	0.461718	0.001537	-0.014768	-0.000043	1.735071	0.008923	-0.223650	
43980	27.56	-9.782265	0.394598	0.456805	-0.003592	-0.005816	-0.006078	1.734610	0.002253	-0.227201	
43981	27.56	-9.767693	0.384889	0.456876	0.000693	-0.005881	0.000916	1.735615	0.007852	-0.222247	
43982	27.50	-9.774667	0.375379	0.452134	0.000748	-0.006732	-0.003381	1.734430	0.006725	-0.222791	
43983	27.50	-9.777108	0.380188	0.456958	0.000782	0.003942	-0.004117	1.735649	0.009195	-0.223934	
43984	27.50	-9.767381	0.370524	0.452170	-0.000068	-0.002234	-0.009405	1.735310	0.010559	-0.223455	
43985	27.50	-9.781982	0.370493	0.461800	-0.002716	0.001246	0.000987	1.734324	0.009517	-0.223034	
43986	27.50	-9.767417	0.384933	0.466670	0.005047	-0.005892	0.001031	1.735247	0.009864	-0.224832	
43987	27.50	-9.772227	0.389899	0.449696	0.008494	-0.009467	0.001915	1.733767	0.009323	-0.224444	
43988	27.50	-9.762533	0.380152	0.457012	0.003325	-0.004105	0.001022	1.734543	0.010065	-0.223886	
43989	27.50	-9.779567	0.392201	0.469033	0.006799	0.000328	0.000272	1.734694	0.008756	-0.222886	
43990	27.50	-9.767400	0.375311	0.459424	0.015514	0.003042	-0.009080	1.734741	0.010238	-0.222129	
43991	27.50	-9.767417	0.384933	0.466670	-0.001821	-0.000486	-0.005082	1.734714	0.009629	-0.222632	
43992	27.50	-9.757689	0.380107	0.461872	0.006794	0.006524	0.004670	1.734601	0.010140	-0.225500	
43993	27.50	-9.762548	0.375282	0.461863	-0.007067	-0.010284	-0.000094	1.735063	0.008253	-0.222862	
43994	27.50	-9.762503	0.370563	0.444924	-0.002654	-0.001327	-0.010304	1.732669	0.007498	-0.223538	
43995	27.50	-9.757638	0.370568	0.442521	-0.003536	-0.004003	-0.008620	1.734440	0.008759	-0.223029	
43996	27.50	-9.772265	0.375306	0.461827	0.003313	-0.007664	0.000980	1.734668	0.009681	-0.223755	
43997	27.50	-9.781924	0.385137	0.442405	-0.000172	-0.012118	0.003471	1.733714	0.007834	-0.222340	
43998	27.50	-9.767365	0.380231	0.447310	0.003290	-0.013009	0.002648	1.735720	0.009114	-0.222187	
43999	27.50	-9.757689	0.380107	0.461872	0.004197	-0.001441	0.001067	1.732818	0.008367	-0.223149	
44000	27.50	-9.774664	0.385052	0.452117	0.005120	-0.002256	-0.009314	1.735706	0.010281	-0.222805	
44001	27.50	-9.767371	0.380214	0.449731	0.003308	-0.019185	-0.003488	1.733338	0.009497	-0.222857	
44002	27.50	-9.767444	0.384866	0.476354	0.001607	-0.012938	-0.006040	1.733975	0.008974	-0.222315	
44003	27.50	-9.760110	0.384966	0.459434	-0.012188	0.006653	-0.003439	1.734364	0.008448	-0.221792	
44004	27.50	-9.762536	0.372897	0.457025	-0.000130	-0.002315	0.000984	1.734057	0.010302	-0.223672	
44005	27.50	-9.767400	0.375311	0.459424	0.005959	0.003023	-0.002312	1.734097	0.008722	-0.222308	
44006	27.50	-9.767392	0.380164	0.456994	0.005886	0.000268	0.008912	1.733433	0.008125	-0.223230	
44007	27.50	-9.760127	0.370423	0.464302	0.005043	-0.009439	0.000118	1.735102	0.009103	-0.222108	
44008	27.50	-9.781950	0.387488	0.452085	0.007707	-0.006705	-0.010188	1.734328	0.010408	-0.223154	
44009	27.50	-9.767418	0.380097	0.466679	-0.006962	-0.004831	-0.015613	1.735570	0.008119	-0.222576	
44010	27.50	-9.767389	0.389837	0.456977	-0.009555	0.009349	-0.008556	1.735862	0.010374	-0.222046	
44011	27.56	-9.767703	0.372781	0.459319	0.008482	-0.012987	-0.003371	1.733353	0.008368	-0.223031	
44012	27.56	-9.765303	0.392038	0.471398	0.008424	-0.009520	0.007929	1.735130	0.010647	-0.222642	
44013	27.56	-9.787107	0.380151	0.449549	-0.001914	-0.008550	0.001710	1.735077	0.008532	-0.223403	
44014	27.56	-9.782281	0.384891	0.461664	-0.008787	0.006595	0.000909	1.734574	0.009045	-0.223686	
44015	27.56	-9.762875	0.384777	0.471420	-0.001919	-0.012977	-0.000081	1.734115	0.008869	-0.222724	
44016	27.56	-9.767703	0.399365	0.461692	-0.007082	-0.009383	-0.002718	1.735187	0.009062	-0.223890	
44017	27.56	-9.772525	0.382550	0.447178	0.001536	-0.008572	0.003497	1.736734	0.010166	-0.222776	
44018	27.56	-9.782274	0.384908	0.459243	-0.008807	-0.000517	0.000824	1.735436	0.009064	-0.223872	
44019	27.56	-9.770110	0.380092	0.452033	0.001604	0.008346	0.000235	1.734687	0.010851	-0.224416	
44020	27.56	-9.777383	0.384980	0.447156	-0.006998	-0.002191	-0.013022	1.733692	0.009050	-0.223999	
44021	27.56	-9.762841	0.365531	0.456928	0.010235	-0.012076	-0.006797	1.735641	0.009869	-0.222111	
44022	27.56	-9.767683	0.375250	0.452051	-0.005345	-0.007610	-0.002672	1.735412	0.009844	-0.221629	
44023	27.56	-9.772535	0.394608	0.451998	0.010232	0.001202	0.000297	1.735417	0.009213	-0.224371	
44024	27.56	-9.755568	0.363062	0.461802	0.014560	0.005622	0.002145	1.735158	0.009848	-0.221772	
44025	27.56	-9.767679	0.389759	0.452025	0.010251	-0.006744	-0.006727	1.734575	0.008149	-0.223441	
44026	27.56	-9.767681	0.380086	0.452042	0.003299	-0.002334	0.001001	1.734892	0.009737	-0.222166	
44027	27.56	-9.765266	0.380047	0.456893	0.004196	-0.008493	-0.007718	1.735682	0.009950	-0.221111	
44028	27.56	-9.772568	0.375195	0.461717	0.010221	-0.007668	-0.002411	1.734798	0.009076	-0.224292	
44029	27.56	-9.765276	0.389686	0.461718	0.001626	-0.004908	-0.010315	1.734834	0.010059	-0.223662	
44030	27.56	-9.777407	0.394586	0.456823	0.011925	0.001147	0.006388	1.734678	0.008046	-0.223932	
44031	27.56	-9.787127	0.380100	0.456813	0.004134	-0.008579	0.002677	1.734920	0.009450	-0.221418	
44032	27.56	-9.767727	0.384806	0.468981	0.007602	0.003824	0.007209	1.734636	0.009103	-0.222187	
44033	27.56	-9.779872	0.360670	0.466559	0.001589	-0.006729	-0.005143	1.733997	0.009500	-0.222730	
44034	27.56	-9.767708	0.380019	0.461727	-0.002800	-0.008570	0.005154	1.736154	0.010368	-0.221822	
44035	27.56	-9.762849	0.384844	0.461736	-0.014021	-0.007612	0.001513	1.734045	0.007029	-0.223983	
44036	27.56	-9.767695	0.380053	0.456884	0.008492	-0.007660	-0.002440	1.736643	0.009998	-0.221912	
44037	27.56	-9.772541	0.375262	0.452033	-0.000138	-0.006720	-0.005171	1.735908	0.007050	-0.223972	
44038	27.56	-9.765266	0.380047	0.456893	-0.002708	0.005723	-0.003334	1.735108	0.007986	-0.222532	
44039	27.56	-9.767701	0.380036	0.459306	-0.007132	-0.011221	0.005049	1.734882	0.009237	-0.222293	
44040	27.56	-9.757940	0.372875	0.442407	-0.000209	-0.009470	0.006050	1.734076	0.010064	-0.223966	
44041	27.56	-9.777435	0.389683	0.466516	0.001492	-0.015714	0.006876	1.735422	0.010345	-0.221502	
44042	27.56	-9.782296	0.380021	0.466515	0.003265	-0.005922	0.004424	1.736368	0.009273	-0.225421	
44043	27.56	-9.762814	0.365598	0.447244	-0.000124	-0.005815	-0.006895	1.735516	0.009357	-0.221998	
44044	27.56	-9.767723	0.375149	0.466578	-0.005352	-0.002304	0.000855	1.736673	0.009723	-0.224152	
44045	27.56	-9.777394	0.392201	0.451985	0.005116	0.002203	-0.011900	1.736308	0.008559	-0.223686	
44046	27.56	-9.772563	0.392122	0.461687	-0.001852	-0.002264	-0.006010	1.736321	0.011870	-0.224167	
44047	27.56	-9.767730	0.372714	0.469003	-0.001939	-0.005920	0.006930	1.735034	0.007813	-0.224281	
44048	27.56	-9.767666	0.384956	0.447191	0.003340	-0.005822	-0.007699	1.737190	0.010601	-0.223861	
44049	27.56	-9.767698	0.392127	0.459284	-0.005395	-0.001476	0.008661	1.735444	0.009311	-0.223746	
44050	27.56	-9.782262	0.404271	0.456787	0.006705	0.001123	0.011499	1.736323	0.009565	-0.223556	
44051	27.56	-9.784700	0.375258	0.456830	-0.001025	-0.001434	0.000942	1.735234	0.009136	-0.222766	
44052	27.56	-9.777441	0.392084	0.468932	-0.001920	-0.004125	0.004360	1.734920	0.009847	-0.224528	
44053	27.56	-9.767681	0.380086	0.452042	-0.005353	-0.015590	-0.005365	1.736452	0.009434	-0.223423	
44054	27.56	-9.772534	0.375278	0.449612	-0.007207	-0.004237	0.021587	1.734444	0.009435	-0.223943	
44055	27.56	-9.767709	0.375183	0.461735	-0.005316	-0.012884	-0.010529	1.735946	0.010717	-0.223951	
44056	27.56	-9.767640	0.385023	0.437507	0.008516	-0.007632	-0.005901	1.735229	0.009142	-0.222891	
44057	27.56	-9.748294	0.384758	0.469053	-0.007074	-0.012025	-0.005355	1.735622	0.008099	-0.222120	
44058	27.56	-9.765244	0.384934	0.449621	0.001508	-0.002408	0.011363	1.736643	0.010510	-0.222034	
44059	27.56	-9.775007	0.384840	0.466533	-0.006225	-0.004970	0.000812	1.733115	0.008481	-0.222799	
44060	27.56	-9.775009	0.380004	0.466542	-0.003684	-0.005936	0.009502	1.735371	0.008867	-0.222384	
44061	27.56	-9.774968	0.382522	0.452011	-0.006266	-0.002369	0.009503	1.734312	0.008290	-0.223833	
44062	27.56	-9.767669	0.375283	0.447209	0.006830	-0.002252	-0.011063	1.735309	0.009321	-0.224004	
44063	27.56	-9.760413	0.384855	0.459324	-0.009622	-0.008415	-0.011413	1.735103	0.009526	-0.223023	
44064	27.56	-9.775006	0.389677	0.466525	0.000800	0.002231	-0.013705	1.735052	0.008561	-0.224027	
44065	27.56	-9.767696	0.375216	0.456893	-0.003562	-0.004889	-0.010403	1.737298	0.013435	-0.224960	
44066	27.56	-9.772535	0.370442	0.449621	-0.005390	0.004728	0.011332	1.734941	0.007904	-0.223540	
44067	27.56	-9.772569	0.370358	0.461726	-0.007117	-0.002345	0.006887	1.734207	0.010186	-0.223832	
44068	27.56	-9.782254	0.384958	0.451980	0.001568	-0.012959	-0.004347	1.735065	0.008802	-0.223776	
44069	27.56	-9.787139	0.384903	0.461646	-0.001860	-0.006706	-0.006927	1.735343	0.009155	-0.223131	
44070	27.56	-9.772557	0.387303	0.459275	0.005920	-0.012050	-0.008595	1.735651	0.010369	-0.221983	
44071	27.56	-9.772543	0.389754	0.454428	0.006803	-0.005830	-0.008505	1.735329	0.008787	-0.223383	
44072	27.56	-9.794368	0.401983	0.442220	0.008502	-0.007653	-0.004161	1.736107	0.010805	-0.223068	
44073	27.56	-9.772607	0.379931	0.476235	-0.003647	-0.001457	0.005225	1.735820	0.010078	-0.223839	
44074	27.56	-9.775011	0.370331	0.466559	-0.002735	-0.006713	-0.005215	1.736331	0.009301	-0.223308	
44075	27.56	-9.774981	0.382489	0.456853	-0.003667	-0.002372	0.008680	1.736239	0.007983	-0.222200	
44076	27.56	-9.777456	0.387214	0.473783	0.004147	-0.008558	0.000077	1.734693	0.009949	-0.224046	
44077	27.56	-9.772558	0.384884	0.459279	0.001575	-0.008519	-0.003430	1.735773	0.011141	-0.222219	
44078	27.56	-9.762843	0.380024	0.459323	-0.001912	0.004743	0.007925	1.735079	0.009170	-0.223524	
44079	27.56	-9.748290	0.375102	0.466649	0.004130	-0.006805	0.004420	1.734993	0.009893	-0.222780	
44080	27.56	-9.767708	0.380019	0.461727	-0.003591	-0.002270	-0.004310	1.735466	0.008518	-0.223001	
44081	27.56	-9.772566	0.380031	0.461709	-0.008687	0.007615	-0.015534	1.735457	0.008144	-0.223128	
44082	27.56	-9.777385	0.375307	0.447173	0.001610	0.004809	-0.002404	1.738283	0.011011	-0.221539	
44083	27.56	-9.767681	0.382505	0.452038	-0.013907	0.006706	-0.010436	1.735989	0.009390	-0.222585	
44084	27.56	-9.767710	0.372765	0.461740	0.008558	0.008368	-0.005712	1.734484	0.010412	-0.223188	
44085	27.56	-9.767722	0.379986	0.466569	0.000732	0.001257	-0.002464	1.734848	0.007995	-0.222800	
44086	27.56	-9.767693	0.384889	0.456876	0.007670	-0.001401	-0.006708	1.738013	0.011417	-0.222179	
44087	27.56	-9.767673	0.384940	0.449612	0.008519	-0.007626	-0.006768	1.738455	0.009950	-0.223150	
44088	27.56	-9.774994	0.384874	0.461691	0.000694	-0.003223	0.001815	1.736546	0.009981	-0.224285	
44089	27.56	-9.772535	0.372860	0.449616	-0.002831	-0.007728	0.011226	1.735462	0.008650	-0.223125	
44090	27.56	-9.784674	0.370488	0.447155	0.003309	-0.009409	-0.004277	1.734051	0.007150	-0.223858	
44091	27.56	-9.772513	0.380165	0.442340	-0.001879	-0.000531	0.000072	1.736627	0.009889	-0.222287	
44092	27.56	-9.782254	0.384958	0.451980	0.001497	-0.002426	0.013098	1.736282	0.009996	-0.224677	
44093	27.56	-9.767671	0.370447	0.447217	-0.003596	-0.006706	-0.005230	1.735085	0.008267	-0.223155	
44094	27.56	-9.767711	0.370346	0.461744	-0.005351	-0.002303	0.000854	1.736002	0.001585	-0.223368	
44095	27.56	-9.767693	0.384889	0.456876	0.003328	-0.007608	-0.006855	1.733519	0.000163	-0.226046	
44096	27.56	-9.782295	0.384858	0.466506	0.001621	-0.004030	-0.009436	1.735781	0.001182	-0.225627	
44097	27.56	-9.772568	0.375195	0.461717	-0.005268	0.011091	-0.006776	1.735352	0.006074	-0.222150	
44098	27.56	-9.787153	0.382452	0.466493	0.010265	0.004787	-0.003989	1.735840	0.008009	-0.222852	
44099	27.56	-9.772551	0.384901	0.456858	0.006798	-0.000523	-0.004979	1.736225	0.010173	-0.223062	
44100	27.56	-9.762823	0.380074	0.452060	-0.008840	-0.012957	0.000669	1.736041	0.009856	-0.224446	
44101	27.56	-9.767679	0.389759	0.452025	0.004138	-0.007685	0.002685	1.735633	0.009111	-0.222115	
44102	27.56	-9.762850	0.380007	0.461745	0.004931	-0.011324	0.013043	1.733886	0.006798	-0.221755	
44103	27.56	-9.772569	0.370358	0.461726	0.003333	-0.002289	-0.005061	1.735853	0.006331	-0.222112	
44104	27.56	-9.782293	0.392113	0.466493	-0.002701	-0.001355	-0.008609	1.736600	0.009280	-0.222790	
44105	27.56	-9.767699	0.363125	0.456915	-0.002746	-0.005841	-0.002609	1.735376	0.008350	-0.222137	
44106	27.56	-9.772555	0.372810	0.456880	-0.002789	-0.005014	0.005197	1.736088	0.010442	-0.223444	
44107	27.56	-9.767709	0.375183	0.461735	0.001512	-0.009488	0.006946	1.734441	0.008671	-0.223822	
44108	27.56	-9.782268	0.382507	0.456826	0.000608	-0.005110	0.015648	1.736619	0.010665	-0.222658	
44109	27.56	-9.767707	0.384856	0.461718	0.006764	-0.008537	-0.003345	1.736904	0.008978	-0.224388	
44110	27.56	-9.767699	0.387291	0.459293	-0.005331	-0.002277	-0.002606	1.736061	0.008810	-0.223703	
44111	27.56	-9.770124	0.380059	0.456875	0.008482	-0.005903	0.000180	1.735094	0.009153	-0.223150	
44112	27.56	-9.765239	0.380114	0.447209	-0.001900	-0.002328	0.002646	1.736276	0.008467	-0.224436	
44113	27.56	-9.767656	0.375317	0.442367	-0.001881	-0.001418	0.000059	1.736241	0.010156	-0.222688	
44114	27.56	-9.767695	0.380053	0.456884	-0.000136	0.006568	0.001050	1.735725	0.007485	-0.222489	
44115	27.56	-9.787137	0.394576	0.461629	-0.002746	-0.012043	-0.006138	1.736804	0.010356	-0.224139	
44116	27.56	-9.801776	0.353368	0.481018	-0.000187	-0.020071	-0.004464	1.737233	0.006842	-0.221884	
44117	27.56	-9.765219	0.380164	0.439946	-0.000131	-0.001397	-0.003375	1.734208	0.007243	-0.223099	
44118	27.56	-9.767677	0.370430	0.449639	0.008545	-0.011134	-0.012874	1.737070	0.009059	-0.223379	
44119	27.56	-9.772532	0.382533	0.449599	0.005074	-0.009366	-0.010309	1.736677	0.010103	-0.224150	
44120	27.56	-9.765266	0.380047	0.456893	-0.006183	0.007486	0.000093	1.736991	0.009518	-0.222387	
44121	27.56	-9.777371	0.380177	0.442322	-0.005342	-0.004951	-0.001770	1.736071	0.007775	-0.223209	
44122	27.56	-9.777424	0.380043	0.461691	-0.000224	-0.002406	0.011335	1.735697	0.009692	-0.223725	
44123	27.56	-9.774966	0.387359	0.452002	-0.008775	0.004840	-0.001710	1.735667	0.009967	-0.221486	
44124	27.56	-9.782296	0.380021	0.466515	0.011985	0.001226	-0.004004	1.735825	0.009561	-0.223592	
44125	27.56	-9.767727	0.384806	0.468981	-0.015744	-0.008483	-0.000258	1.737151	0.008968	-0.221382	
44126	27.56	-9.772554	0.375228	0.456875	-0.005417	-0.011248	0.007676	1.735180	0.008429	-0.223894	
44127	27.56	-9.777410	0.382495	0.456844	0.003292	-0.012971	-0.003454	1.736523	0.009865	-0.221797	
44128	27.56	-9.770079	0.394669	0.442323	-0.005471	-0.023719	0.010994	1.736195	0.010208	-0.223811	
44129	27.56	-9.774993	0.389710	0.461682	0.006830	0.003947	-0.008387	1.734580	0.008654	-0.223438	
44130	27.56	-9.774979	0.389744	0.456840	0.000664	-0.003263	0.007011	1.735249	0.009119	-0.222392	
44131	27.56	-9.767679	0.365594	0.449647	0.010147	-0.014851	0.007026	1.734439	0.008033	-0.223701	
44132	27.56	-9.767668	0.380120	0.447200	0.013678	-0.002371	0.001175	1.735656	0.010364	-0.221858	
44133	27.56	-9.782241	0.384992	0.447138	0.003245	-0.001523	0.010540	1.734969	0.008129	-0.222915	
44134	27.56	-9.767688	0.380070	0.454463	-0.006223	0.007432	0.007020	1.734891	0.009611	-0.222166	
44135	27.56	-9.757981	0.370356	0.456938	-0.012203	0.004897	-0.006970	1.735061	0.009957	-0.224144	
44136	27.56	-9.762890	0.379907	0.476271	-0.001858	-0.004040	-0.006036	1.735809	0.009963	-0.224089	
44137	27.56	-9.767672	0.389776	0.449604	0.001572	-0.010295	-0.003451	1.738473	0.011209	-0.223018	
44138	27.56	-9.772552	0.382483	0.456862	-0.005321	-0.002264	-0.004337	1.735687	0.009704	-0.223975	
44139	27.56	-9.777408	0.389750	0.456831	-0.001867	-0.002285	-0.003411	1.735198	0.008665	-0.223518	
44140	27.56	-9.767709	0.375183	0.461735	-0.003708	-0.011280	0.011167	1.735419	0.008443	-0.224125	
44141	27.56	-9.767711	0.370346	0.461744	-0.002696	-0.002232	-0.009492	1.734565	0.008160	-0.223691	
44142	27.56	-9.767666	0.384956	0.447191	-0.000165	-0.004099	0.000923	1.736357	0.009910	-0.222805	
44143	27.56	-9.770082	0.384996	0.442340	0.001621	0.013681	0.000301	1.734926	0.007922	-0.223915	
44144	27.56	-9.774982	0.380071	0.456858	-0.012306	-0.000556	0.007690	1.737201	0.009181	-0.223245	
44145	27.56	-9.767692	0.389726	0.456867	-0.002751	-0.000535	0.000923	1.736428	0.008692	-0.223801	
44146	27.56	-9.767709	0.375183	0.461735	-0.003591	-0.002269	-0.004311	1.735871	0.009509	-0.222469	
44147	27.56	-9.760366	0.384972	0.442376	0.006765	-0.002337	0.000193	1.734460	0.009544	-0.223567	
44148	27.56	-9.772531	0.384951	0.449595	-0.012320	-0.009431	0.005852	1.736052	0.008436	-0.223830	
44149	27.56	-9.782270	0.375252	0.456839	-0.010482	-0.004867	-0.010516	1.735614	0.010283	-0.222857	
44150	27.56	-9.767717	0.394495	0.466543	-0.000199	-0.014769	0.000795	1.733318	0.006489	-0.223416	
44151	27.56	-9.767677	0.370430	0.449639	0.004167	0.002095	0.002799	1.736874	0.009253	-0.222148	
44152	27.56	-9.767668	0.380120	0.447200	-0.012197	0.001360	-0.009606	1.735101	0.009785	-0.223146	
44153	27.56	-9.784674	0.394654	0.449532	-0.000149	0.000348	0.000116	1.734984	0.008623	-0.222662	
44154	27.56	-9.772556	0.370392	0.456884	0.003247	-0.013030	0.004335	1.735845	0.009538	-0.223093	
44155	27.56	-9.767675	0.380103	0.449621	-0.007059	-0.007583	-0.005297	1.733688	0.007647	-0.223757	
44156	27.56	-9.753099	0.360738	0.447289	0.007567	-0.010393	0.007032	1.736367	0.009387	-0.222433	
44157	27.56	-9.777412	0.375240	0.456857	0.004167	-0.000562	0.001038	1.735711	0.008140	-0.222985	
44158	27.56	-9.767723	0.375149	0.466578	0.001562	-0.014734	-0.004374	1.735066	0.009952	-0.224019	
44159	27.56	-9.782250	0.399468	0.451954	-0.003642	-0.004112	0.003468	1.736078	0.008408	-0.223206	
44160	27.56	-9.772580	0.379998	0.466551	-0.000092	-0.012857	-0.016501	1.736891	0.008225	-0.224517	
44161	27.56	-9.777416	0.387315	0.459257	-0.006247	-0.005886	0.004266	1.737445	0.011620	-0.223962	
44162	27.56	-9.777396	0.384947	0.451998	-0.001998	-0.004231	0.018213	1.734454	0.007504	-0.223204	
44163	27.56	-9.767701	0.382454	0.459301	0.008568	-0.011102	-0.017201	1.735273	0.008452	-0.221646	
44164	27.56	-9.767685	0.365577	0.452068	-0.008840	-0.012958	0.000668	1.736130	0.009897	-0.225311	
44165	27.56	-9.772603	0.370274	0.473832	0.010196	0.000271	0.005476	1.736466	0.009176	-0.226037	
44166	27.56	-9.772541	0.372843	0.452037	-0.003631	0.001219	0.004392	1.735350	0.010298	-0.223250	
44167	27.56	-9.782281	0.384891	0.461664	0.010185	0.002909	0.008977	1.735577	0.008151	-0.223244	
44168	27.56	-9.784724	0.384864	0.466497	0.008510	-0.004096	-0.004125	1.736298	0.010617	-0.224424	
44169	27.56	-9.772542	0.394591	0.454419	0.011929	-0.006819	0.001962	1.735495	0.008628	-0.225363	
44170	27.56	-9.767654	0.380153	0.442358	0.004213	-0.001387	-0.006765	1.735894	0.010762	-0.222212	
44171	27.56	-9.762839	0.370368	0.456920	-0.001891	-0.007628	-0.001750	1.736722	0.010051	-0.223027	
44172	27.56	-9.767677	0.394596	0.452016	-0.007040	-0.009328	-0.009645	1.735552	0.009203	-0.224112	
44173	27.56	-9.762790	0.380158	0.439955	0.005033	0.000322	0.001928	1.737565	0.009196	-0.223467	
44174	27.56	-9.757942	0.365620	0.442420	-0.017446	-0.012869	-0.006405	1.734845	0.008128	-0.222924	
44175	27.56	-9.777409	0.387331	0.456836	-0.021858	-0.006772	0.010921	1.734978	0.010422	-0.223277	
44176	27.56	-9.774993	0.389710	0.461682	-0.006088	0.005840	-0.017241	1.735984	0.009907	-0.222832	
44177	27.56	-9.762850	0.380007	0.461745	-0.008864	-0.008560	0.006783	1.734936	0.007399	-0.223543	
44178	27.56	-9.782272	0.394581	0.459226	-0.016527	-0.001290	-0.010571	1.734972	0.008893	-0.223035	
44179	27.56	-9.784695	0.389767	0.456804	0.003337	-0.004056	-0.006807	1.735962	0.009292	-0.223210	
44180	27.56	-9.765278	0.384850	0.461727	0.003333	-0.000516	-0.004173	1.737476	0.011201	-0.223091	
44181	27.56	-9.782264	0.399434	0.456796	0.010289	0.007476	-0.006552	1.735058	0.008681	-0.223901	
44182	27.56	-9.772522	0.394641	0.447156	-0.000186	-0.007670	0.002615	1.736941	0.009576	-0.223635	
44183	27.56	-9.777385	0.375307	0.447173	-0.000135	0.004795	0.000165	1.736705	0.009815	-0.223402	
44184	27.56	-9.777368	0.389850	0.442305	0.005004	-0.007690	0.002702	1.734399	0.011021	-0.225432	
44185	27.56	-9.762822	0.384911	0.452052	-0.000184	0.005620	0.008832	1.736233	0.008886	-0.222570	
44186	27.56	-9.777381	0.389817	0.447147	0.005069	-0.002289	-0.005892	1.735600	0.008381	-0.222743	
44187	27.56	-9.784658	0.380195	0.442295	-0.007085	0.001236	0.003472	1.736152	0.010626	-0.221945	
44188	27.56	-9.787126	0.384937	0.456804	0.008476	-0.005914	0.001050	1.737058	0.009841	-0.223874	
44189	27.56	-9.762818	0.375255	0.449648	0.005078	0.002153	-0.004979	1.736597	0.007492	-0.222426	
44190	27.56	-9.767677	0.370430	0.449639	0.013688	-0.009443	-0.004107	1.735884	0.009366	-0.222095	
44191	27.56	-9.765252	0.380080	0.452051	0.000686	-0.008547	0.000883	1.735556	0.007151	-0.223499	
44192	27.56	-9.772538	0.384935	0.452016	0.008477	0.001175	0.004596	1.737323	0.010849	-0.223726	
44193	27.56	-9.774990	0.375217	0.459287	-0.004538	-0.013003	0.004206	1.737109	0.008376	-0.222260	
44194	27.56	-9.784724	0.384864	0.466497	-0.001869	-0.000516	-0.002524	1.735298	0.009206	-0.224255	
44195	27.56	-9.772530	0.389788	0.449586	-0.007095	-0.005861	0.001654	1.735058	0.008170	-0.223779	
44196	27.56	-9.777435	0.389683	0.466516	-0.013977	-0.000471	-0.002727	1.734820	0.009179	-0.223792	
44197	27.56	-9.782257	0.375285	0.451997	-0.008874	-0.005035	0.010293	1.735994	0.011430	-0.222949	
44198	27.56	-9.782266	0.389761	0.456813	0.005001	-0.000607	0.006251	1.735432	0.008173	-0.223752	
44199	27.56	-9.777396	0.384947	0.451998	0.001512	-0.009489	0.006951	1.736232	0.008374	-0.222448	
44200	27.56	-9.787127	0.380100	0.456813	0.008496	-0.009430	-0.004188	1.735952	0.008280	-0.223216	
44201	27.56	-9.772529	0.370459	0.447200	0.008466	-0.001498	0.005428	1.735406	0.007690	-0.224254	
44202	27.56	-9.777371	0.380177	0.442322	-0.004456	-0.001385	-0.003445	1.736269	0.010380	-0.222062	
44203	27.56	-9.762819	0.370418	0.449657	0.011137	0.009223	-0.002195	1.734746	0.009632	-0.222675	
44204	27.56	-9.767656	0.375317	0.442367	-0.001919	-0.002355	0.006109	1.735486	0.009903	-0.222869	
44205	27.56	-9.772557	0.365555	0.456893	-0.000205	-0.001494	0.008745	1.735421	0.006650	-0.223636	
44206	27.56	-9.787129	0.375264	0.456821	0.001552	-0.014752	-0.002637	1.736136	0.009109	-0.221954	
44207	27.56	-9.772566	0.380031	0.461709	0.006797	-0.004066	-0.006754	1.736693	0.009189	-0.223531	
44208	27.56	-9.777451	0.379976	0.471375	-0.005313	-0.002253	-0.006069	1.737484	0.009288	-0.225464	
44209	27.56	-9.782319	0.392046	0.476178	0.003352	0.002165	-0.006734	1.736848	0.010178	-0.223017	
44210	27.56	-9.762874	0.389613	0.471412	0.010174	-0.009499	0.004494	1.734832	0.007886	-0.223175	
44211	27.56	-9.767705	0.392111	0.461705	0.008476	-0.007681	0.000160	1.736843	0.010696	-0.223264	
44212	27.56	-9.762863	0.379974	0.466587	-0.008801	-0.005819	-0.002709	1.734896	0.009093	-0.221920	
44213	27.56	-9.774968	0.380104	0.452015	0.011919	-0.006832	0.003692	1.736012	0.010131	-0.222207	
44214	27.56	-9.772532	0.382533	0.449599	0.005069	0.004797	-0.002346	1.735108	0.009521	-0.222898	
44215	27.56	-9.762810	0.380108	0.447218	-0.001915	-0.012975	-0.000080	1.735262	0.008223	-0.224884	
44216	27.56	-9.770100	0.370453	0.447209	0.006795	-0.000528	-0.004115	1.737144	0.009743	-0.221753	
44217	27.56	-9.777390	0.382545	0.449581	-0.005353	-0.004965	-0.000039	1.735679	0.008433	-0.223857	
44218	27.56	-9.767652	0.365661	0.439963	-0.001919	-0.005896	0.004333	1.735718	0.008773	-0.222981	
44219	27.56	-9.774994	0.384874	0.461691	0.005072	-0.009368	-0.010309	1.737055	0.010214	-0.221010	
44220	27.56	-9.777412	0.375240	0.456857	0.005002	-0.004148	0.004473	1.737186	0.009198	-0.223619	
44221	27.56	-9.772527	0.375295	0.447191	-0.003592	-0.004929	-0.005207	1.735134	0.010515	-0.222518	
44222	27.56	-9.774984	0.372816	0.456871	0.006813	-0.004046	-0.009352	1.734197	0.009174	-0.223837	
44223	27.56	-9.767707	0.382438	0.461722	0.010216	-0.004131	0.000230	1.736009	0.009878	-0.222208	
44224	27.56	-9.774994	0.384874	0.461691	0.005047	-0.002316	-0.002431	1.735346	0.009919	-0.223252	
44225	27.56	-9.767705	0.389692	0.461709	-0.000124	-0.008472	-0.008654	1.736229	0.006075	-0.221961	
44226	27.56	-9.779841	0.375246	0.456848	-0.003683	-0.002393	0.011277	1.735734	0.010290	-0.222973	
44227	27.56	-9.787151	0.389706	0.466480	-0.006237	-0.004987	0.002547	1.734682	0.007914	-0.223808	
44228	27.56	-9.774967	0.384941	0.452007	-0.016505	-0.001260	-0.014037	1.736169	0.009213	-0.224191	
44229	27.56	-9.767697	0.370380	0.456902	0.001586	-0.001419	-0.001616	1.734990	0.008617	-0.222537	
44230	27.56	-9.767709	0.375183	0.461735	0.003297	-0.009420	-0.002549	1.735351	0.010425	-0.223249	
44231	27.56	-9.777398	0.380110	0.452006	0.011998	-0.000529	-0.006623	1.735630	0.008858	-0.222116	
44232	27.56	-9.796815	0.385028	0.447084	-0.005331	-0.005825	-0.004373	1.736360	0.010163	-0.222804	
44233	27.56	-9.782287	0.389711	0.464077	0.005079	0.000382	-0.006726	1.737120	0.009387	-0.222254	
44234	27.56	-9.767701	0.380036	0.459306	-0.001912	-0.002343	0.004377	1.735252	0.009258	-0.225378	
44235	27.56	-9.777399	0.375274	0.452015	-0.000126	-0.009362	-0.008665	1.735613	0.010157	-0.222858	
44236	27.56	-9.762873	0.370284	0.469025	-0.001862	-0.005817	-0.006059	1.735191	0.008418	-0.223644	
44237	27.56	-9.767697	0.372798	0.456898	0.007704	-0.002242	-0.012781	1.735310	0.007913	-0.223638	
44238	27.56	-9.765239	0.380114	0.447209	-0.000175	-0.007654	0.000879	1.737416	0.011270	-0.224588	
44239	27.56	-9.772555	0.372810	0.456880	0.004099	-0.021021	0.002522	1.733080	0.007113	-0.223306	
44240	27.56	-9.777413	0.372822	0.456862	0.003257	-0.009476	0.004380	1.735232	0.010418	-0.223134	
44241	27.56	-9.777398	0.380110	0.452006	-0.003588	0.000389	-0.003409	1.734967	0.007876	-0.222916	
44242	27.56	-9.767685	0.392161	0.454442	0.000736	-0.006710	-0.006886	1.734448	0.006872	-0.223208	
44243	27.56	-9.772538	0.384935	0.452016	-0.005223	-0.002136	-0.020787	1.735538	0.009972	-0.221620	
44244	27.56	-9.782254	0.384958	0.451980	-0.000070	0.008423	-0.009314	1.736458	0.009043	-0.223175	
44245	27.56	-9.772566	0.380031	0.461709	-0.001763	0.005825	-0.017171	1.736948	0.010720	-0.223754	
44246	27.56	-9.777410	0.382495	0.456844	0.013564	-0.009608	0.016676	1.734442	0.008285	-0.223699	
44247	27.56	-9.767695	0.380053	0.456884	-0.004458	0.011015	0.002763	1.735444	0.009822	-0.223868	
44248	27.56	-9.762838	0.375204	0.456911	0.003339	0.004806	-0.002379	1.736243	0.009897	-0.222564	
44249	27.56	-9.777386	0.372889	0.447177	-0.007102	0.002100	0.006943	1.735484	0.008753	-0.222625	
44250	27.56	-9.777383	0.384980	0.447156	-0.006273	0.003820	0.013908	1.735482	0.010035	-0.222993	
44251	27.56	-9.772550	0.389738	0.456849	0.003348	0.013672	0.000330	1.735228	0.008119	-0.222647	
44252	27.56	-9.782268	0.384925	0.456822	0.005909	0.002104	0.000236	1.735743	0.011175	-0.222968	
44253	27.56	-9.772553	0.380065	0.456867	0.004127	-0.011242	0.002641	1.732944	0.008917	-0.224054	
44254	27.56	-9.782280	0.387310	0.461660	-0.000133	0.001257	-0.002473	1.735722	0.008640	-0.222857	
44255	27.56	-9.777385	0.375307	0.447173	0.006804	-0.005830	-0.008506	1.735534	0.009593	-0.221622	
44256	27.56	-9.772523	0.389805	0.447165	0.001493	-0.007744	0.011301	1.736371	0.009255	-0.222309	
44257	27.56	-9.770147	0.394501	0.466534	-0.001921	-0.006783	0.003461	1.737796	0.012416	-0.224680	
44258	27.56	-9.767708	0.380019	0.461727	0.001613	-0.000497	-0.005933	1.736201	0.008794	-0.223320	
44259	27.56	-9.767751	0.370246	0.476271	-0.003543	-0.000432	-0.012084	1.736354	0.009531	-0.222807	
44260	27.56	-9.762847	0.367933	0.459345	0.008477	-0.002365	0.002816	1.736305	0.006772	-0.223322	
44261	27.56	-9.765292	0.382398	0.466573	-0.006988	0.000484	-0.013860	1.735546	0.010105	-0.224481	
44262	27.56	-9.767668	0.380120	0.447200	0.000723	0.005670	0.001920	1.736160	0.009977	-0.221574	
44263	27.56	-9.787108	0.401898	0.451931	-0.000244	-0.014834	0.008594	1.735378	0.007580	-0.221892	
44264	27.56	-9.762798	0.375305	0.442385	-0.007915	-0.001368	-0.003506	1.735007	0.009635	-0.225394	
44265	27.56	-9.772526	0.380132	0.447182	0.006736	-0.005035	0.003626	1.734961	0.008152	-0.226151	
44266	27.56	-9.777411	0.380077	0.456849	-0.007091	-0.012940	-0.002762	1.736582	0.009044	-0.223166	
44267	27.56	-9.762837	0.380041	0.456902	-0.014086	-0.020098	0.006558	1.736824	0.010333	-0.223640	
44268	27.56	-9.777384	0.380144	0.447164	-0.003615	-0.000533	0.000909	1.735286	0.009091	-0.224505	
44269	27.56	-9.787113	0.382552	0.451966	0.003198	-0.003356	0.017446	1.736204	0.009047	-0.223318	
44270	27.56	-9.791989	0.389768	0.459199	0.008424	-0.016611	0.004387	1.732604	0.006701	-0.222721	
44271	27.56	-9.772539	0.380098	0.452024	-0.001906	0.004748	0.007062	1.736061	0.009322	-0.223825	
44272	27.56	-9.762838	0.375204	0.456911	0.004998	-0.009465	0.002674	1.736443	0.009060	-0.223550	
44273	27.56	-9.748278	0.372717	0.461811	-0.001863	-0.001388	-0.003410	1.734954	0.009680	-0.223655	
44274	27.56	-9.782269	0.380088	0.456831	-0.007061	-0.002274	-0.002633	1.736349	0.010048	-0.223054	
44275	27.56	-9.765268	0.370374	0.456911	-0.000192	-0.007675	0.003474	1.734665	0.006782	-0.223939	
44276	27.56	-9.777442	0.387248	0.468941	0.001499	-0.011276	0.007794	1.738241	0.009908	-0.222294	
44277	27.56	-9.772561	0.375211	0.459296	0.001550	-0.010324	0.000010	1.736723	0.008643	-0.222660	
44278	27.56	-9.777451	0.379976	0.471375	0.005857	-0.005048	0.005343	1.736609	0.008630	-0.222419	
44279	27.56	-9.782267	0.387343	0.456818	-0.001811	0.010187	-0.006724	1.735826	0.009176	-0.223470	
44280	27.56	-9.784705	0.380078	0.459243	0.004194	-0.003184	-0.005052	1.734508	0.010016	-0.225553	
44281	27.56	-9.767701	0.380036	0.459306	0.007668	-0.004061	-0.007607	1.737208	0.009813	-0.223241	
44282	27.56	-9.762865	0.375137	0.466595	0.008542	-0.007592	-0.011100	1.734825	0.007254	-0.223178	
44283	27.56	-9.767693	0.384889	0.456876	0.005849	-0.003287	0.007961	1.736852	0.009535	-0.222771	
44284	27.56	-9.782284	0.375218	0.461682	0.008516	0.001226	-0.002331	1.736608	0.009015	-0.222542	
44285	27.56	-9.772580	0.379998	0.466551	0.003395	0.009308	-0.010115	1.735639	0.008720	-0.221867	
44286	27.56	-9.767683	0.372832	0.452055	0.001508	-0.005951	0.009587	1.736439	0.009704	-0.223796	
44287	27.56	-9.782254	0.387377	0.451975	-0.001943	-0.004158	0.008690	1.734912	0.010497	-0.224899	
44288	27.56	-9.775008	0.382422	0.466538	-0.000204	-0.016549	0.000773	1.736433	0.010606	-0.224165	
44289	27.56	-9.772523	0.392223	0.447160	-0.020043	-0.009322	-0.004666	1.736672	0.010108	-0.224275	
44290	27.56	-9.777389	0.387382	0.449572	-0.012259	-0.002267	-0.000987	1.736184	0.008685	-0.223695	
44291	27.56	-9.762819	0.370418	0.449657	0.000718	0.009207	0.004558	1.735561	0.009065	-0.223863	
44292	27.56	-9.767693	0.384889	0.456876	-0.005331	-0.002276	-0.002606	1.732797	0.008301	-0.224441	
44293	27.56	-9.767683	0.372832	0.452055	-0.000199	-0.003257	0.006992	1.735826	0.009687	-0.223592	
44294	27.56	-9.777355	0.387465	0.437467	-0.003690	-0.013032	0.007688	1.736691	0.008551	-0.223409	
44295	27.56	-9.774968	0.380104	0.452015	-0.010499	-0.004003	-0.007042	1.737350	0.009539	-0.222734	
44296	27.56	-9.767666	0.384956	0.447191	-0.001961	-0.013037	0.007714	1.735977	0.008252	-0.222592	
44297	27.56	-9.767681	0.380086	0.452042	-0.005342	-0.001407	0.000002	1.735203	0.008659	-0.223393	
44298	27.56	-9.762839	0.372786	0.456915	-0.005381	-0.009427	0.002500	1.735804	0.009698	-0.221104	
44299	27.56	-9.767691	0.370397	0.454481	0.004217	-0.004923	-0.009408	1.735180	0.008429	-0.223894	
44300	27.56	-9.767678	0.368012	0.449643	-0.003665	-0.004140	0.007789	1.736730	0.010298	-0.222900	
44301	27.56	-9.777400	0.372855	0.452019	0.004122	-0.009478	0.004394	1.735855	0.009015	-0.222721	
44302	27.56	-9.772596	0.370291	0.471410	0.007597	-0.005040	0.003637	1.736142	0.009741	-0.221950	
44303	27.56	-9.772550	0.365572	0.454472	-0.001840	0.003065	-0.005084	1.737715	0.009168	-0.222834	
44304	27.56	-9.762838	0.375204	0.456911	0.004237	0.007503	-0.006661	1.734334	0.009928	-0.223699	
44305	27.56	-9.765247	0.375261	0.449639	-0.012261	-0.001381	-0.000115	1.735769	0.010761	-0.222221	
44306	27.56	-9.765276	0.365521	0.459341	-0.017505	-0.007633	0.005782	1.735290	0.008959	-0.224381	
44307	27.56	-9.774978	0.394580	0.456831	-0.005352	-0.004077	-0.000027	1.735810	0.010601	-0.224211	
44308	27.56	-9.772541	0.375262	0.452033	-0.003656	-0.004128	0.006059	1.735721	0.009025	-0.222980	
44309	27.56	-9.774984	0.372816	0.456871	0.006775	-0.008524	-0.005076	1.736478	0.009020	-0.222676	
44310	27.56	-9.762811	0.375271	0.447227	0.003295	-0.018280	-0.006119	1.737223	0.009796	-0.222867	
44311	27.56	-9.762841	0.365531	0.456928	-0.008759	-0.000450	-0.006976	1.735320	0.009436	-0.223754	
44312	27.56	-9.777446	0.375156	0.468963	0.008495	-0.002343	-0.000643	1.736401	0.010628	-0.221927	
44313	27.56	-9.767656	0.375317	0.442367	0.006722	-0.010367	0.003560	1.737064	0.008939	-0.223505	
44314	27.56	-9.779813	0.380149	0.447155	-0.001850	0.004821	-0.002460	1.734855	0.009651	-0.223040	
44315	27.56	-9.782257	0.375285	0.451997	0.008523	-0.009394	-0.008519	1.734463	0.007877	-0.223077	
44316	27.56	-9.782271	0.372834	0.456844	-0.013939	-0.002194	-0.009676	1.735680	0.009583	-0.224101	
44317	27.56	-9.767681	0.382505	0.452038	-0.005383	-0.001461	0.006929	1.736256	0.010650	-0.222435	
44318	27.56	-9.755540	0.365547	0.452113	-0.003614	-0.011155	-0.004421	1.735322	0.009051	-0.223631	
44319	27.56	-9.767668	0.380120	0.447200	0.006759	-0.004117	0.000172	1.736418	0.010112	-0.224418	
44320	27.56	-9.767672	0.365610	0.447226	0.003320	-0.009391	-0.006013	1.735679	0.008433	-0.223857	
44321	27.56	-9.767684	0.370413	0.452060	-0.005317	0.007483	0.000107	1.734821	0.008283	-0.223547	
44322	27.56	-9.767688	0.355904	0.452086	0.000672	-0.005024	0.005251	1.735665	0.010226	-0.221609	
44323	27.56	-9.762821	0.365582	0.449665	0.015403	-0.005925	0.000292	1.733824	0.008786	-0.223742	
44324	27.56	-9.772499	0.380199	0.437498	-0.003649	-0.002349	0.006083	1.737232	0.009658	-0.222618	
44325	27.56	-9.767710	0.372765	0.461740	0.004233	-0.002244	-0.011108	1.737332	0.008280	-0.222866	
44326	27.56	-9.753126	0.360671	0.456973	-0.002798	-0.005022	0.006922	1.736761	0.009878	-0.222029	
44327	27.56	-9.767709	0.375183	0.461735	0.008487	-0.004125	0.000199	1.735760	0.009876	-0.222226	
44328	27.56	-9.765279	0.380013	0.461736	0.013701	-0.007652	-0.005817	1.735347	0.009534	-0.223129	
44329	27.56	-9.767695	0.380053	0.456884	-0.002766	-0.002326	0.002631	1.736458	0.009555	-0.223297	
44330	27.56	-9.748250	0.375202	0.452123	-0.001899	0.001219	0.004415	1.734666	0.009851	-0.224671	
44331	27.56	-9.772551	0.384901	0.456858	-0.000182	-0.004122	0.003521	1.736627	0.009377	-0.222165	
44332	27.56	-9.777426	0.375207	0.461699	-0.002755	-0.003198	0.000024	1.734769	0.009351	-0.222052	
44333	27.56	-9.782269	0.380088	0.456831	0.011040	-0.016590	0.000963	1.735732	0.009140	-0.222730	
44334	27.56	-9.782252	0.394631	0.451962	-0.005295	-0.004004	-0.009549	1.736696	0.010465	-0.223773	
44335	27.56	-9.777411	0.380077	0.456849	-0.001882	-0.000533	0.000072	1.733983	-0.001586	-0.226394	
44336	27.56	-9.784690	0.384948	0.454392	-0.003673	-0.009466	0.005999	1.736394	0.001710	-0.225953	
44337	27.56	-9.777398	0.380110	0.452006	0.003306	0.005644	0.003697	1.736164	-0.000362	-0.224984	
44338	27.56	-9.777398	0.380110	0.452006	-0.001886	0.006545	0.004487	1.735889	0.007825	-0.221604	
44339	27.56	-9.787098	0.389840	0.447111	-0.000090	-0.000461	-0.010285	1.734884	0.010001	-0.222414	
44340	27.56	-9.774954	0.382556	0.447169	0.010157	-0.009526	0.007960	1.734903	0.007692	-0.224415	
44341	27.56	-9.770126	0.372804	0.456889	-0.000134	-0.004942	-0.005150	1.736575	0.011355	-0.223902	
44342	27.56	-9.777410	0.384913	0.456840	0.011104	-0.003221	-0.003206	1.735556	0.009070	-0.223988	
44343	27.56	-9.762849	0.384844	0.461736	0.013701	-0.009423	-0.006704	1.736583	0.010579	-0.223532	
44344	27.56	-9.762858	0.375154	0.464174	-0.001907	-0.004106	0.002622	1.735559	0.008427	-0.223742	
